,x1,x2,y1,y2,object_type_Car,object_type_Van,static_dynamic_dynamic,static_dynamic_static,lat,lon,alt,roll,pitch,yaw,vn,ve,vf,vl,vu,ax,ay,az,af,al,au,wx,wy,wz,wf,wl,wu,pos_accuracy,vel_accuracy,navstat,numsats,posmode,velmode,orimode,Break,frame
0,168.48,233.71,162.67,289.58,1,0,0,1,48.94319266913,8.4088306440334,135.77313232422,0.043518,0.002646,-0.4748916732051,-2.6058162959815,4.9482760443629,5.5922255694663,0.052003356702236,0.046944009558932,-0.78052998847192,0.42613470685417,9.912833167181,-0.75243472053384,-0.0038680602309852,9.9241685330016,0.0028705944895438,-0.0028524959724439,0.0093221593954112,0.0028964907003837,-0.003253843371078,0.0091825093650614,0.28567113959937,0.030413812651491,4.0,13.0,4.0,4.0,6.0,True,0
1,169.13,236.54,148.99,282.03,1,0,0,1,48.943190355133,8.4088372842047,135.78369140625,0.044518,0.002674,-0.4742506732051,-2.5690811185411,4.8843372434372,5.5185281477855,0.052674858894483,0.055368675671459,-0.78002134861727,0.49881278723746,9.8226801287852,-0.75354104686066,0.065914797113066,9.8371999557117,0.0084034543836774,0.00010810964477669,0.0075557820334797,0.0084237685261398,-0.00022466294719945,0.0075315598469453,0.28567113959937,0.030413812651491,4.0,13.0,4.0,4.0,6.0,True,1
2,171.13,190.01,535.81,558.86,0,1,0,1,48.943187849806,8.4088444569042,135.80101013184,0.044921,0.00211,-0.4735576732051,-2.5220032102653,4.8098929175547,5.4307656801267,0.048644318222772,0.048030163718869,-0.82409809094262,0.52041137765106,9.600370945603,-0.80067413549565,0.0903249549996,9.6160267083387,0.0026821501309567,-0.0051839349752202,0.0076133757363238,0.0026998490217554,-0.0055194974118315,0.0073652957956085,0.28567113959937,0.030413812651491,4.0,13.0,4.0,4.0,6.0,False,2
3,171.77,191.04,535.02,558.42,0,1,0,1,48.943185620554,8.4088508887709,135.80494689941,0.044475,0.000652,-0.4728096732051,-2.478613273073,4.7414290628977,5.3500123055002,0.045329609048875,0.036664032190844,-0.80847655705718,0.49597623200049,9.7897504250146,-0.79567739057283,0.05919970690112,9.8031930151867,-0.0019512170108444,-0.011154823164102,0.0077725608833591,-0.0019413674590486,-0.011490209066143,0.0072696588927284,0.28567113959937,0.030413812651491,4.0,13.0,4.0,4.0,6.0,True,3
4,172.43,192.11,534.2,557.97,0,1,0,1,48.94318321065,8.4088578550109,135.8037109375,0.044909,5.2e-05,-0.4720746732051,-2.4368443511675,4.6596998313122,5.2581893581592,0.049508184205588,0.043554328231251,-0.88345511508803,0.42658790235727,9.9187496520917,-0.88010253278188,-0.016506805561168,9.9281923231367,0.0046828358723085,-0.0046218493038894,0.0068516739380496,0.0046854518229754,-0.0049229429017324,0.0066391719484393,0.28567113959937,0.030413812651491,4.0,13.0,4.0,4.0,1.0,True,4
5,171.66,191.75,533.45,557.77,0,1,0,1,48.943181067553,8.4088640875722,135.80488586426,0.045905,-0.000335,-0.4714476732051,-2.3965454975893,4.5762119094428,5.1654733212561,0.054956850675897,0.052804925058558,-0.95554607393414,0.41779861978056,9.8783316792145,-0.95648059211742,-0.030218890928429,9.887012352064,0.010283809179282,-0.0038076247071492,0.006524171228487,0.010283361894854,-0.004099110239209,0.006347356000524,0.28567113959937,0.030413812651491,4.0,13.0,4.0,4.0,1.0,True,5
6,170.86,191.37,532.66,557.55,0,1,0,1,48.943178951989,8.4088702136479,135.8095703125,0.047276,-0.000252,-0.4707546732051,-2.354176498295,4.4880313796117,5.0676349396015,0.060320132439521,0.057683320417202,-0.990945158057,0.45745775081025,9.8108715541708,-0.99399847684582,-0.00039542119020314,9.8212399613712,0.011337694980391,0.0014792452857241,0.0077147678707687,0.01133527670399,0.0011169448713169,0.0077818897285784,0.28567113959937,0.030413812651491,4.0,13.0,4.0,4.0,1.0,True,6
7,170.02,190.97,531.85,557.33,0,1,0,1,48.943176699727,8.4088768383682,135.81517028809,0.047594,0.001374,-0.4699266732051,-2.2925712091313,4.3923509445461,4.9543754277013,0.053068742010209,0.06376066507972,-1.0607800377959,0.66209114456602,9.8090928048607,-1.0553374235295,0.19607454128388,9.8301041120848,0.0027288210853696,0.01483846565116,0.007036521373084,0.002732809523996,0.014487809792602,0.0077367839887892,0.28567113959937,0.030413812651491,4.0,13.0,4.0,4.0,1.0,True,7
8,169.14,190.56,530.99,557.11,0,1,0,1,48.943174719238,8.4088827406828,135.82186889648,0.046905,0.00343,-0.4694276732051,-2.2278353993263,4.3009308798621,4.8435214175938,0.039800357123151,0.06514498153612,-1.185804840179,0.53520110598164,9.774521442699,-1.1628805367608,0.074098298106318,9.7917380265071,-0.0037707364939069,0.019423847777411,0.0046865205710399,-0.0037593563269077,0.019181093293636,0.0056077262309737,0.28567113959937,0.030413812651491,4.0,13.0,4.0,4.0,6.0,True,8
9,168.23,190.13,530.1,556.87,0,1,0,1,48.943172837543,8.4088884962142,135.83285522461,0.046737,0.004399,-0.4689096732051,-2.1706543431384,4.191209618189,4.7197780585205,0.040924621005271,0.061943598879827,-1.3192898536567,0.40332812633532,9.7592526228635,-1.2816821065368,-0.054135836238669,9.7725233405543,-0.0014745679746119,0.010121720896133,0.0058286856512742,-0.0014504534220796,0.009837604533958,0.0063022508621935,0.28567113959937,0.030413812651491,4.0,13.0,4.0,4.0,6.0,True,9
10,168.0,190.39,528.48,555.87,0,1,0,1,48.943170799817,8.4088946297331,135.84144592285,0.046894,0.004863,-0.4683756732051,-2.1096581617896,4.063533741931,4.5782919541567,0.046896870751832,0.057937593314782,-1.350229789624,0.41710931029681,9.7613973022275,-1.3056262655391,-0.039728412401289,9.7763080947983,0.0024914033834804,0.0056164333434284,0.0049085793599799,0.0025145661436574,0.0053808996363041,0.0051538549211188,0.28425692603699,0.030413812651491,4.0,13.0,4.0,4.0,6.0,True,10
11,167.76,190.66,526.78,554.84,0,1,0,1,48.943169009896,8.4089000502283,135.8489074707,0.047494,0.005513,-0.4682396732051,-2.0485794629498,3.9460891772043,4.4459096977728,0.046722040433834,0.054051429747224,-1.3913799994074,0.48329788645641,9.7110687873917,-1.3415915804838,0.02423313512571,9.7300774668669,0.0049289810527186,0.0070948543089451,0.0022516825937637,0.004941578982202,0.0069810428227756,0.0025591577750383,0.28425692603699,0.030413812651491,4.0,13.0,4.0,4.0,6.0,True,11
12,167.52,190.94,525.01,553.76,0,1,0,1,48.943167254118,8.4089052983473,135.85208129883,0.047988,0.00584,-0.4684036732051,-1.9814540034385,3.8269069637932,4.3092592372521,0.040752990668211,0.041180891118512,-1.4477159464942,0.50981656903086,9.6189768461675,-1.3929789753362,0.050854437374997,9.6404297279611,0.0058660984419475,0.0027333178366196,-0.0011153880233345,0.0058597254187101,0.0027840411422984,-0.00101814330001,0.28425692603699,0.030413812651491,4.0,13.0,4.0,4.0,6.0,False,12
13,168.31,192.27,523.15,552.59,0,1,0,1,48.943165398242,8.4089108788151,135.85202026367,0.048384,0.004585,-0.4688596732051,-1.9100330644364,3.6967438960265,4.1608841413012,0.034372749553572,0.02074090101881,-1.2381992695521,0.47853187186562,9.5625317284544,-1.1884748153179,0.017071455528699,9.5808630490175,0.0032335484908094,-0.010746345280556,-0.0024269609296877,0.0032182626854131,-0.01061651395956,-0.0029618045255888,0.28425692603699,0.030413812651491,4.0,13.0,4.0,4.0,6.0,False,13
14,169.15,193.65,521.2,551.38,0,1,1,0,48.9431637481,8.4089158162254,135.85023498535,0.048588,0.0023,-0.4693266732051,-1.8672440612177,3.6133178502104,4.0671402866718,0.032178437974641,0.0029547665216548,-0.760705527454,0.44554881851296,9.7276203483624,-0.72715770372631,-0.026124758211821,9.7406367068933,0.0026451688474781,-0.02053685987366,-0.0029577225548623,0.002632213883258,-0.020369311106568,-0.0039591057245676,0.28425692603699,0.030413812651491,4.0,13.0,4.0,4.0,6.0,False,14
15,170.02,195.1,519.16,550.12,0,1,1,0,48.943162113745,8.4089206883054,135.84915161133,0.048863,0.000487,-0.4696286732051,-1.8439196814173,3.5620417994277,4.0108711544933,0.033099955890269,0.012625710464994,-0.44533512522766,0.46765766960311,9.9874346939326,-0.43107099332546,-0.018963597092596,9.9992283713902,0.0032879793452946,-0.016928814016965,-0.002276246518079,0.0032835172927937,-0.016797893448312,-0.003101081015655,0.28425692603699,0.030413812651491,4.0,13.0,4.0,4.0,6.0,False,15
16,170.94,196.63,517.02,548.8,0,1,1,0,48.94316032979,8.408925994135,135.85162353516,0.049121,-0.000346,-0.4700026732051,-1.8266856170813,3.5276726593036,3.9724358739283,0.03174663181219,0.029479941848734,-0.34162306200391,0.48205220275978,9.9392600405274,-0.34054112360187,-0.0051615462068623,9.9510402785841,0.002606385907722,-0.0081473449656186,-0.0027266374507703,0.002606065241539,-0.0080040879392289,-0.0031218898682818,0.28425692603699,0.030413812651491,4.0,13.0,4.0,4.0,6.0,False,16
17,189.34,218.74,94.96,181.94,1,0,0,1,48.943158714374,8.4089307686069,135.85632324219,0.049635,-9.3e-05,-0.4703126732051,-1.8109121531832,3.499581988261,3.9402570697609,0.029146814993664,0.039019643047901,-0.3144779894327,0.51049191362398,9.8553536328625,-0.31594323370832,0.023496596774893,9.868512334883,0.0046994176265596,0.0008531787237313,-0.0032005891924683,0.0046998795549146,0.0010100868065278,-0.0031526345784312,0.28425692603699,0.030413812651491,4.0,12.0,4.0,4.0,6.0,True,17
18,189.32,219.03,89.28,177.41,1,0,0,1,48.943156965542,8.4089359779712,135.86668395996,0.048942,0.000338,-0.4705146732051,-1.7870982681234,3.4647162795719,3.8983928902857,0.022547494913792,0.037826155465296,-0.38285831473696,0.5466589186608,9.732757946705,-0.38121912252841,0.066666482208205,9.7479362279598,-0.0056885568090361,0.0029060772585398,-0.0016023659334985,-0.0056885761571624,0.0029816518713474,-0.0014550153185905,0.28425692603699,0.030413812651491,4.0,12.0,4.0,4.0,6.0,True,18
19,189.29,219.32,83.48,172.78,1,0,0,1,48.94315538914,8.4089406560499,135.87394714355,0.047822,0.000222,-0.4705416732051,-1.7645035711686,3.4295457644541,3.8568031159293,0.018038002461286,0.037374632063034,-0.42901627139328,0.50482734621398,9.7967040328087,-0.42675769717039,0.030606992866908,9.8097603228726,-0.0095715520853742,-0.00014146621542022,-0.00059875206756374,-0.0095716059102264,-0.00011212107174197,-0.00060172081084147,0.28284624798643,0.030413812651491,4.0,12.0,4.0,4.0,6.0,True,19
20,189.27,219.63,77.55,168.05,1,0,0,1,48.943153843412,8.4089452729802,135.88200378418,0.046443,4.3e-05,-0.4706276732051,-1.744206492112,3.3907290391034,3.8130045319175,0.017199619171478,0.039023019284282,-0.43380239075621,0.44957446552589,9.8071037758017,-0.43280162370456,-0.013883515933571,9.8174577423973,-0.013698684150913,-0.00095005577077999,-0.00033025463225941,-0.013698746801029,-0.00093318823990506,-0.00037352313006718,0.28284624798643,0.029,4.0,12.0,4.0,4.0,6.0,False,20
21,189.25,219.93,71.49,163.23,1,0,0,1,48.94315215449,8.4089503111697,135.88990783691,0.046142,-0.000367,-0.4707536732051,-1.7264942485208,3.3477186135176,3.7666403099237,0.020592001835054,0.040049899716883,-0.39272208149842,0.4004902306827,9.8174633831217,-0.39444515628652,-0.054416794032914,9.8254265062502,-0.0028992801972039,-0.00335840959539,-0.0010214483311594,-0.0028989812808521,-0.0033076274890955,-0.0011750618791409,0.28284624798643,0.029,4.0,12.0,4.0,4.0,6.0,False,21
22,189.22,220.25,65.3,158.31,1,0,0,1,48.943150640226,8.4089548386657,135.90184020996,0.046174,-0.00069,-0.4708766732051,-1.7126499993663,3.3129681518284,3.7293934292185,0.02353014131363,0.03787993250073,-0.35990669482177,0.42204295078941,9.7462708185409,-0.36458633943263,-0.028545233500219,9.7551941520253,-0.00039720674971324,-0.0036338420104675,-0.00085930286889447,-0.00039672735203257,-0.0035903412810432,-0.0010260272040076,0.28284624798643,0.029,4.0,13.0,4.0,4.0,6.0,True,22
23,189.2,220.57,58.97,153.28,1,0,0,1,48.943149129824,8.4089593158588,135.91137695312,0.046243,-0.001217,-0.4710196732051,-1.6954550857708,3.2798339710253,3.692067950989,0.022652206752727,0.033929038471455,-0.37200135941757,0.43722286386104,9.7571832589295,-0.38074241797433,-0.01362772893737,9.7666250866516,0.0012106151315039,-0.0056485599042358,-0.00061649996270484,0.0012113500807767,-0.0056140938343669,-0.00087510759549022,0.28284624798643,0.029,4.0,13.0,4.0,4.0,6.0,False,23
24,189.18,220.9,52.49,148.15,1,0,0,1,48.943147498453,8.4089641828534,135.91734313965,0.046084,-0.002155,-0.4710356732051,-1.6772372427502,3.2437542893755,3.6516505578748,0.022685380310974,0.028533795183531,-0.33678114294452,0.46295569570218,9.763543769067,-0.35311109930681,0.011543943318477,9.7739378324807,-0.001977396070728,-0.0084212556341557,-0.00011738378771882,-0.0019765469197411,-0.0084067720214845,-0.00051046768232387,0.28284624798643,0.029,4.0,13.0,4.0,4.0,6.0,False,24
25,189.15,221.24,45.87,142.9,1,0,0,1,48.943146029899,8.4089685721382,135.92393493652,0.04563,-0.002687,-0.4710876732051,-1.6548289150987,3.2185528796387,3.6190250383656,0.014075604547646,0.030808590978114,-0.28465335436331,0.56235378245152,9.8510828148778,-0.30846427463855,0.10948737942699,9.8658050827541,-0.0052087468926042,-0.0047914389152083,-0.00086442315836257,-0.0052058621446203,-0.0047469520665721,-0.0010977910874158,0.28284624798643,0.029,4.0,13.0,4.0,4.0,6.0,True,25
26,189.13,221.58,39.1,137.54,1,0,0,1,48.94314442693,8.4089734019813,135.92755126953,0.044427,-0.002606,-0.4714216732051,-1.6329868887778,3.1902499011329,3.5838938434233,0.0065816108432079,0.036803953376049,-0.29376752040053,0.43306937992141,9.8301472184727,-0.319398585163,-0.0090184334904717,9.8389173135706,-0.0090261710187304,-0.00012591132763471,-0.0029244319022334,-0.0090184222396575,5.1012693272277e-06,-0.0029521228069509,0.28284624798643,0.029,4.0,13.0,4.0,4.0,6.0,True,26
27,189.1,221.93,32.16,132.06,1,0,0,1,48.943142990437,8.4089777138006,135.93667602539,0.043267,-0.002729,-0.4717046732051,-1.6180756169328,3.160020039571,3.5501912866386,0.0060727204867032,0.041644523794301,-0.29526787794133,0.41512836966273,9.8884065464851,-0.3217967166588,-0.019262432817411,9.8962864657922,-0.011212353163,-0.00087316346318398,-0.0030972740427646,-0.011203896024381,-0.00073672425405311,-0.0031629289484779,0.28284624798643,0.029,4.0,13.0,4.0,4.0,6.0,False,27
28,189.76,223.02,24.99,126.4,1,0,0,1,48.943141568266,8.4089819773445,135.94979858398,0.042611,-0.00281,-0.4720696732051,-1.6068585839452,3.1311908325076,3.5194161062109,0.0079437287159819,0.047155104269791,-0.25153536395177,0.36819591087352,9.8001332418565,-0.27857890565283,-0.053316389190182,9.8061867711994,-0.0065921521445295,-0.00090209752952012,-0.003308620950868,-0.0065829044740815,-0.00075916267810539,-0.0033623558429752,0.28284624798643,0.029,4.0,13.0,4.0,4.0,6.0,False,28
29,190.43,224.14,17.65,120.62,1,0,0,1,48.943140156672,8.4089862166481,135.96156311035,0.042294,-0.003264,-0.4727956732051,-1.6006684691355,3.1045512631565,3.4928825104115,0.012555803814297,0.043698751215369,-0.2208461163975,0.34491782420439,9.7503072141116,-0.25022555978069,-0.069641110001284,9.755454032197,-0.0035082659432631,-0.0045785760578207,-0.005890958137342,-0.0034898510418827,-0.0043244614838411,-0.0060899004262789,0.28214358046924,0.029698484809835,4.0,13.0,4.0,4.0,6.0,False,29
30,191.12,225.28,10.12,114.7,1,0,0,1,48.94313859264,8.4089908579726,135.96832275391,0.042349,-0.004469,-0.4736506732051,-1.597759008276,3.0899905781076,3.4786036455414,0.014027412307418,0.035551853674972,-0.0044565592534432,0.3815685910102,9.7091582884638,-0.041845557369359,-0.0295837330487,9.7165546784319,0.00047072133960916,-0.01120138921219,-0.0077252429892264,0.00050301198317538,-0.010864588419067,-0.0081890514758899,0.28214358046924,0.029698484809835,4.0,13.0,4.0,4.0,6.0,False,30
31,191.82,226.45,2.48,108.69,1,0,0,1,48.943137144653,8.4089951133215,135.97387695312,0.042197,-0.006101,-0.4743146732051,-1.6043445576658,3.0995312203889,3.4901072396481,0.012949217372663,0.033587228313063,0.23483533939515,0.38571679566582,9.8128427856353,0.18276613117847,-0.029650949369152,9.8215744559871,-0.0019349028253822,-0.014364101383785,-0.0059363184331615,-0.0019007223602939,-0.014100278462085,-0.0065499398740318,0.28214358046924,0.029698484809835,4.0,13.0,4.0,4.0,6.0,False,31
32,192.55,227.66,0.0,102.43,1,0,0,1,48.94313569313,8.4089993862715,135.97872924805,0.042355,-0.00722,-0.4752396732051,-1.6141112377915,3.1164699008148,3.509646173049,0.01101855584053,0.036993750782188,0.24674270567115,0.41430266454845,9.8413535934923,0.18143931352793,-0.0024349793840109,9.8515035875144,0.00057061314806936,-0.010736684536034,-0.0079221911654811,0.00062648417612016,-0.010391926953232,-0.0083648578981603,0.28214358046924,0.029698484809835,4.0,13.0,4.0,4.0,6.0,False,32
33,193.55,229.19,0.0,95.71,1,0,0,1,48.943134090051,8.4090041014327,135.98536682129,0.042551,-0.007763,-0.4762506732051,-1.6233054364218,3.1290205726771,3.5250242897006,0.0098903014296014,0.042677707618412,0.17269885813802,0.33012573639072,9.8508359783042,0.098856115526876,-0.088017241213529,9.8569716512835,0.0020821796055326,-0.0050516870825342,-0.0081313700942623,0.0021445610376491,-0.0047023670184123,-0.0083217782263451,0.28214358046924,0.029698484809835,4.0,13.0,4.0,4.0,6.0,False,33
34,194.58,230.75,0.0,88.83,1,0,0,1,48.943132618788,8.4090083868967,135.99183654785,0.043241,-0.00831,-0.4769856732051,-1.6354957469577,3.1334854188466,3.5345922718963,0.015775514161467,0.045102148471846,0.18481279118667,0.31998448132338,9.8132827848974,0.10611465975642,-0.10130354114827,9.8191397818766,0.005694252587407,-0.005431754882199,-0.0066798196691659,0.005749071956337,-0.0051405609836873,-0.0068602828411536,0.28214358046924,0.029698484809835,4.0,13.0,4.0,4.0,6.0,False,34
35,195.64,232.36,0.0,81.77,1,0,0,1,48.943131128731,8.4090126984214,135.99984741211,0.043948,-0.009153,-0.4775786732051,-1.6481298132236,3.1454370969786,3.5510202304681,0.019216311896656,0.043660580899778,0.29445684298282,0.41831860179867,9.786444033638,0.20927986126517,-0.0082360147748675,9.7976122022004,0.0067806234313733,-0.0083149685718337,-0.0057919475907592,0.006833606617108,-0.0080550386195075,-0.0060896034095188,0.28214358046924,0.029698484809835,4.0,13.0,4.0,4.0,6.0,False,35
36,196.72,234.02,0.0,74.53,1,0,0,1,48.943129473141,8.4090175074355,136.00778198242,0.044719,-0.010126,-0.4782976732051,-1.6614457273181,3.1713226222062,3.5801418851732,0.016521122845977,0.046870496834863,0.38805651760427,0.42149002116739,9.8724090947955,0.29283263048788,-0.016131154802985,9.8846904012549,0.0073710983485811,-0.0089642855929716,-0.0056949403307315,0.00742895703137,-0.008703667716352,-0.0060148207301658,0.28214358046924,0.029698484809835,4.0,13.0,4.0,4.0,6.0,False,36
37,197.83,235.72,0.0,67.1,1,0,0,1,48.943127950595,8.4090219105482,136.0153503418,0.04541,-0.010793,-0.4791406732051,-1.6788714964857,3.1995029733009,3.6131926804647,0.016389111544216,0.055148477570544,0.46303876547051,0.43452630426697,9.8863744172469,0.36050149732437,-0.011269155170144,9.900205284205,0.0060410372405305,-0.0080367832944494,-0.0076901929043907,0.0061242806567032,-0.0076819306778667,-0.0079819842727883,0.28214358046924,0.029698484809835,4.0,13.0,4.0,4.0,6.0,False,37
38,198.97,237.46,0.0,59.48,1,0,0,1,48.943126410865,8.4090263709421,136.02490234375,0.045312,-0.011255,-0.4797986732051,-1.6957074121192,3.2376590188029,3.6548226455786,0.011109610359363,0.063089322706637,0.58232093755603,0.4911717791152,9.8466643057249,0.47413118644691,0.044598239494696,9.8646345431176,-0.00018316937680552,-0.0053327901849192,-0.0066897284050943,-0.00010732726889989,-0.0050242418789433,-0.0069271355298187,0.28214358046924,0.029698484809835,4.0,13.0,4.0,4.0,6.0,False,38
39,200.14,239.26,0.0,51.66,1,0,0,1,48.943124701724,8.4090313316849,136.03375244141,0.04523,-0.011508,-0.4804566732051,-1.7242488160818,3.2894407985254,3.7139410685029,0.0098466820677115,0.063482402345196,0.706573801758,0.38315657205226,9.7384786293865,0.59594502422608,-0.057706196294038,9.753252681001,-0.00033633436072771,-0.0030556885460497,-0.0054458497027822,-0.00027319197351173,-0.0028061895242208,-0.0055821357452625,0.28072940708091,0.029698484809835,4.0,13.0,4.0,4.0,6.0,False,39
40,201.35,241.11,0.0,43.62,1,0,0,1,48.943123099681,8.4090359366038,136.03982543945,0.045782,-0.011806,-0.4808796732051,-1.7640102566311,3.3432795457872,3.780069254475,0.018370890219573,0.057227914444238,0.83912231508218,0.31697591207536,9.7594960865984,0.72576867699924,-0.12675850687945,9.7729108239838,0.0057955104939885,-0.0037745667891538,-0.0044161524166253,0.0058481447783076,-0.0035701704534306,-0.0045151624266368,0.28072940708091,0.029698484809835,4.0,13.0,4.0,4.0,6.0,False,40
41,202.58,243.01,0.0,35.37,1,0,0,1,48.943121279148,8.4090411007744,136.0475769043,0.047423,-0.012453,-0.4813946732051,-1.8123933545093,3.4147591382163,3.8658333480173,0.026291429980786,0.056428520475886,0.94564781945947,0.40779995365485,9.7974017158238,0.8270072468304,-0.049944360200926,9.8165240910351,0.012774511333814,-0.0065743892251667,-0.0045894060705868,0.012832721810439,-0.0063530234617217,-0.0047372483988268,0.28072940708091,0.029698484809835,4.0,13.0,4.0,4.0,6.0,False,41
42,203.85,244.97,0.0,26.89,1,0,0,1,48.943119572524,8.4090458991437,136.05805969238,0.04893,-0.013333,-0.4817346732051,-1.8571533632336,3.4956203177748,3.9582387447954,0.026978873612853,0.059122975596741,1.1242923128471,0.48180513140721,9.8312643239089,0.99806549173464,0.008724852349196,9.8567336792387,0.014786912065012,-0.0092633797904421,-0.0036272657802824,0.014837607541826,-0.0090787626067593,-0.0038798702202127,0.28072940708091,0.029698484809835,4.0,13.0,4.0,4.0,6.0,False,42
43,204.09,245.95,0.0,17.15,1,0,0,1,48.943117825259,8.4090508170172,136.06790161133,0.049954,-0.013653,-0.4821686732051,-1.906184852899,3.5918139846478,4.0662120642581,0.024200536070401,0.066730036037548,1.2835444858153,0.50243480428419,9.877633825354,1.1503935265911,0.014553723444154,9.9068052612123,0.010446895688053,-0.0037240696836155,-0.0041377802029514,0.010503984141401,-0.0035155939067585,-0.0041743887474849,0.28072940708091,0.029698484809835,4.0,13.0,4.0,4.0,6.0,False,43
44,204.35,246.96,0.0,7.1,1,0,0,1,48.943115835051,8.4090563925189,136.08325195312,0.050356,-0.012897,-0.4824376732051,-1.9663035747684,3.7113777644165,4.2000301969362,0.020433890513804,0.077029173166255,1.3864713074662,0.53962072342617,9.8343151549396,1.2555121964643,0.045594199852385,9.8665622773045,0.0026882757235012,0.0067468567965627,-0.0026288372419765,0.0027189801451284,0.0068698170153161,-0.0022477520871839,0.28072940708091,0.029698484809835,4.0,13.0,4.0,4.0,6.0,False,44
45,182.4,198.35,628.42,664.38,1,0,0,1,48.943113979848,8.4090616601446,136.09602355957,0.049498,-0.011799,-0.4827446732051,-2.0234063923374,3.8337892357164,4.3349666192373,0.01310983175556,0.075851917981518,1.5070055691783,0.56949644576584,9.7235465393325,1.3863562285283,0.084064571209262,9.7577213711344,-0.0067669015569245,0.010024769242114,-0.0035845853420474,-0.0067282558621893,0.010190951251497,-0.0031611762415348,0.28072940708091,0.029698484809835,4.0,13.0,4.0,4.0,6.0,False,45
46,181.93,197.99,628.61,664.83,1,0,0,1,48.943112070872,8.409067102479,136.10678100586,0.048989,-0.010981,-0.4831286732051,-2.0923305320219,3.9613251114076,4.4799293382057,0.013360474903843,0.068439135899637,1.6056463051959,0.36624396615788,9.7021556127664,1.4946528967284,-0.11131167548994,9.7261400464177,-0.003759576093522,0.0076615363364086,-0.0037984501987278,-0.0037201214680029,0.0078391301805771,-0.0034603661003934,0.28072940708091,0.029698484809835,4.0,13.0,4.0,4.0,6.0,False,46
47,181.46,197.62,628.81,665.29,1,0,0,1,48.943109889301,8.409073294366,136.1195526123,0.04943,-0.010692,-0.4832646732051,-2.1802918854843,4.1032787123018,4.6465028193922,0.024198337660454,0.067027099074463,1.6537657839049,0.47377188747913,9.8896565840338,1.5457751015468,-0.014490627759692,9.9184322863299,0.0016898978278289,0.0037076131045089,-0.0016165496441995,0.0017057270385751,0.0037826809024431,-0.0014138450404879,0.28072940708091,0.029698484809835,4.0,13.0,4.0,4.0,6.0,False,47
48,180.99,197.24,629.02,665.75,1,0,0,1,48.943107853578,8.4090791162011,136.13446044922,0.050394,-0.0098,-0.4834296732051,-2.2549771977561,4.2441414475453,4.8059421842001,0.024066753609259,0.078095670920644,1.7314479818932,0.4858632485392,9.8372832840748,1.6302236421088,-0.0057313696788989,9.8665143909577,0.0081257567824777,0.0082654016301616,-0.0016310370296988,0.0081382485785646,0.0083360536784014,-0.0011330159664312,0.27932955446927,0.029698484809835,4.0,13.0,4.0,4.0,6.0,False,48
49,180.5,196.86,629.22,666.22,1,0,0,1,48.943105749422,8.4090851552815,136.14579772949,0.049952,-0.008774,-0.4829286732051,-2.3288461376324,4.3894061301104,4.9688917383889,0.022987864539073,0.071520210380988,1.7156857171717,0.54253201227591,9.6934987976008,1.6254606792503,0.056478182509059,9.7240143335388,-0.0024297465634319,0.0092393044087313,0.0035449459142657,-0.0024652432523796,0.0090500755935404,0.003983488237234,0.27932955446927,0.029698484809835,4.0,13.0,4.0,4.0,6.0,False,49
50,180.01,196.48,629.43,666.7,1,0,0,1,48.943103367483,8.4090920351362,136.15484619141,0.049589,-0.008599,-0.4824506732051,-2.4047785757878,4.5550570449788,5.1508512678699,0.015761353972163,0.059791429397716,1.7387121103735,0.5460170610485,9.6302686478322,1.6547814607256,0.066281685860184,9.6602606715303,-0.003005884797428,0.001915344480612,0.0037590042277462,-0.0030389888468674,0.001725927909343,0.0038245978174996,0.27932955446927,0.029698484809835,4.0,13.0,4.0,4.0,6.0,False,50
51,180.4,196.99,629.95,667.46,1,0,0,1,48.943101129433,8.4090985443121,136.16583251953,0.049499,-0.00981,-0.4822836732051,-2.4773320943274,4.7042718789621,5.3166906038768,0.012475931996497,0.051833030210075,1.7595969104052,0.45963859693244,9.7579120009837,1.6692936594309,-0.023688626945466,9.7845485714678,0.00018173714965465,-0.010122939324466,0.0013661100053994,0.00017464213368912,-0.01017837661467,0.0008678939926725,0.27932955446927,0.029698484809835,4.0,12.0,4.0,4.0,6.0,False,51
52,180.79,197.51,630.48,668.23,1,0,0,1,48.943098825669,8.4091052281659,136.17147827148,0.04923,-0.010812,-0.4816326732051,-2.5551873469011,4.8511820964099,5.48294678068,0.015535042833967,0.051094177646699,1.7460711903239,0.46492763131665,9.8469933172888,1.6446877732221,-0.021709585764582,9.8753516976453,-0.0025626413670893,-0.0092734871454733,0.0058145652709654,-0.0026185064455792,-0.009548951536675,0.0053226818509397,0.27932955446927,0.029698484809835,4.0,12.0,4.0,4.0,6.0,False,52
53,181.18,198.03,631.01,669.0,1,0,0,1,48.943096219563,8.4091128177958,136.17633056641,0.048232,-0.01076,-0.4807236732051,-2.6373906017792,5.0210859673264,5.6715914958676,0.014089018401361,0.050963817398354,1.8347210906812,0.59080445579981,9.7529942526297,1.7290990703644,0.11420435371331,9.7894381582767,-0.010023619355508,0.0010678330550049,0.0074801151807734,-0.010104590159744,0.00070207969922259,0.0074118066267543,0.27932955446927,0.029698484809835,4.0,12.0,4.0,4.0,6.0,False,53
54,180.16,197.16,631.42,669.83,1,0,0,1,48.943093794325,8.4091199595563,136.18014526367,0.046917,-0.009277,-0.4801136732051,-2.7028991857463,5.1778016364551,5.8408315116673,0.0035717504198808,0.052726586034899,1.7615666615808,0.58195194955081,9.8532762992841,1.6630945194407,0.11239100130144,9.8869141016085,-0.012008555181424,0.012519454281505,0.0058750085410556,-0.012072333204491,0.012225705358609,0.0063402534039472,0.27932955446927,0.029698484809835,4.0,12.0,4.0,4.0,6.0,False,54
55,179.12,196.27,631.83,670.66,1,0,0,1,48.943091307423,8.4091272742387,136.19163513184,0.045772,-0.007627,-0.4793986732051,-2.7755262856589,5.3230505778282,6.0031985488114,0.0049009349037962,0.064412196294009,1.6940365581761,0.41249906861055,9.9513455277775,1.6093194547554,-0.050112727426157,9.9739002482618,-0.012021239536434,0.015890231010957,0.0063993391194461,-0.012080739014754,0.015576453903585,0.0070267233426043,0.27932955446927,0.029698484809835,4.0,12.0,4.0,4.0,6.0,False,55
56,178.64,195.96,632.27,671.48,1,0,0,1,48.943088478665,8.4091355490288,136.20431518555,0.045752,-0.006118,-0.4782576732051,-2.8602659234262,5.4743636728122,6.1765260826564,0.016784726503212,0.084625348466279,1.6554039723498,0.39947617800763,9.8930748539188,1.5880289682581,-0.052936599748015,9.9120224906648,0.0010072564274978,0.012393981873814,0.0079994960056681,0.00094909065872992,0.012016021082624,0.0085570912445711,0.27932955446927,0.029698484809835,4.0,12.0,4.0,5.0,6.0,False,56
57,178.16,195.63,632.71,672.3,1,0,0,1,48.943085832736,8.4091432456088,136.21429443359,0.047738,-0.005247,-0.4777516732051,-2.9410233499024,5.6096209145671,6.3337592043458,0.030539766565786,0.078516395085125,1.6038418387534,0.49199650000773,9.3529019066733,1.5500811973678,0.052873255236926,9.3748487320753,0.014077364604237,0.0084056498699421,0.0049508736193227,0.014045745699648,0.0081653119717725,0.00541439648666,0.27932955446927,0.029698484809835,4.0,12.0,4.0,5.0,6.0,False,57
58,177.67,195.3,633.17,673.15,1,0,0,1,48.9430828735,8.4091519624551,136.2183380127,0.047474,-0.00646,-0.4771866732051,-2.9980861854913,5.7723170425707,6.5044678355281,0.01036127771614,0.027452403860441,1.6489736597041,0.71318233575505,9.3941869616121,1.5929164302374,0.26728613517775,9.4271313642876,0.0013614698859059,-0.0088975746125312,0.0048252189716317,0.0013356752956076,-0.0091158830911833,0.0044038353868744,0.27791545476997,0.029698484809835,4.0,12.0,4.0,5.0,6.0,False,58
59,178.2,196.04,633.49,673.87,1,0,0,1,48.943080124513,8.4091600657872,136.2223815918,0.046902,-0.007576,-0.4767916732051,-3.0640120296622,5.915353973725,6.6617987066491,0.0059133895455916,0.014513410608598,1.6532797033127,0.46266894266318,9.7952782880987,1.5847178142972,0.00043684449898034,9.8175304739951,-0.0044452982558488,-0.010310262783397,0.0045728812965236,-0.0044737423267622,-0.010514222081959,0.0040484845949869,0.27791545476997,0.029698484809835,4.0,12.0,4.0,5.0,6.0,False,59
60,178.75,196.79,633.83,674.6,1,0,0,1,48.943077306833,8.4091683662895,136.23306274414,0.04735,-0.007704,-0.4764826732051,-3.1420610315575,6.0518629620732,6.8188966164752,0.015218299362491,0.047140912974624,1.6964810202781,0.33958646292758,10.276140639415,1.6175811689287,-0.14389437029614,10.293434288225,0.0057211006750464,-0.00051074249332259,0.0023684487427856,0.0057032658381027,-0.00062134715489877,0.0023874857734088,0.27791545476997,0.029698484809835,4.0,12.0,4.0,5.0,6.0,False,60
61,176.55,194.72,634.42,675.65,1,0,0,1,48.943074410017,8.4091768373568,136.24543762207,0.049671,-0.005235,-0.4758536732051,-3.2291145787325,6.1856691992165,6.9777126782175,0.034218038359652,0.081433336597422,1.6765089326474,0.31292408517769,9.9544368141909,1.6129321425658,-0.16901763748751,9.9683697862824,0.022233842384306,0.020290475679519,0.0049260247308632,0.022198086641944,0.020026108038208,0.0060430701194277,0.27791545476997,0.029698484809835,4.0,9.0,5.0,5.0,6.0,False,61
62,174.31,192.61,635.02,676.72,1,0,0,1,48.943071162339,8.4091863554172,136.26164245605,0.053413,-0.001136,-0.4754666732051,-3.313951760723,6.3368482293001,7.1509401474581,0.044276392114433,0.083230788634855,1.5605985790207,0.4553631326651,9.609848698555,1.5294014782542,-0.041031390386018,9.6256712054648,0.031148787970986,0.036757310451353,0.0010095072156648,0.031136450123157,0.03665883288477,0.003017577959995,0.27791545476997,0.029698484809835,4.0,9.0,5.0,5.0,6.0,False,62
63,172.0,190.44,635.64,677.82,1,0,0,1,48.943068126995,8.4091951841051,136.27435302734,0.058862,0.001242,-0.4752526732051,-3.3856483366637,6.4624094934243,7.2953793191004,0.052741235595654,0.068804770855687,1.374127456276,0.47157882550141,9.6256549679351,1.3726102232792,-0.067739554373489,9.637377658218,0.050598913581386,0.024782803216804,0.00016281598097988,0.050596321163456,0.024738265064485,0.0015250571415359,0.27791545476997,0.029698484809835,4.0,9.0,5.0,5.0,6.0,False,63
64,171.1,189.77,636.25,678.93,1,0,0,1,48.94306472477,8.409205100584,136.28590393066,0.059915,0.002295,-0.4745006732051,-3.4399789108048,6.6118160922436,7.4530731031049,0.036417505812006,0.036429313576003,1.5080363308767,0.92201989834291,9.5325987922168,1.5239439377451,0.35474736798541,9.5682746238035,0.0093264012251717,0.011728412196759,0.0054640852961145,0.009337993394531,0.01138084379567,0.0061389943065418,0.27791545476997,0.029698484809835,4.0,9.0,5.0,5.0,6.0,False,64
65,170.18,189.09,636.87,680.07,1,0,0,1,48.943061577122,8.4092143421373,136.29110717773,0.059626,0.003699,-0.4739796732051,-3.4919787656383,6.7555205861854,7.6046404200624,0.021526174703605,0.0035044178508248,1.4472578067712,0.42213191221753,9.275016729837,1.4757232464775,-0.12917538141925,9.2792778378939,0.0039397998826662,0.011317055151429,0.0042301352724144,0.0039542803948813,0.011045550830501,0.0048814669059788,0.27791545476997,0.029698484809835,4.0,8.0,5.0,5.0,6.0,False,65
66,169.77,188.95,637.35,681.14,1,0,0,1,48.943058317273,8.4092236549396,136.30252075195,0.062696,0.001832,-0.4737606732051,-3.5708122015509,6.8739951475213,7.7460254575352,0.039798434947637,-0.023929473825575,1.3136563697886,0.40462699097575,9.8588453583807,1.3389411298373,-0.19983602656606,9.8616448552671,0.025461280841219,-0.012704292953964,0.0051108453041007,0.025471167635146,-0.01299486160224,0.0042511740588746,0.27791545476997,0.029698484809835,4.0,8.0,5.0,5.0,6.0,False,66
67,169.34,188.8,637.84,682.23,1,0,0,1,48.943054704831,8.4092341111831,136.32957458496,0.067762,0.002029,-0.4733386732051,-3.660814448842,7.009918075361,7.9080165655814,0.061362143429056,0.0057721667415374,1.4270293713457,0.65784828833821,9.8131520120216,1.4437379378137,0.014135450875484,9.833188288643,0.039141180488021,0.0061846851121608,0.0027332902650465,0.039145726006268,0.0059953004877699,0.0031010674803633,0.27791545476997,0.029698484809835,4.0,8.0,5.0,5.0,6.0,False,67
68,168.9,188.65,638.34,683.37,1,0,0,1,48.943051396791,8.4092438411645,136.35269165039,0.066958,0.003205,-0.4732866732051,-3.6849674780626,7.1534690572467,8.0467863006969,0.019009440218939,-0.016503932777644,1.2826914586427,1.1414485030093,9.5095703506645,1.3087467562573,0.49957653720631,9.5617612966865,-0.0061911578414673,0.0087453724232446,1.0163598278506e-05,-0.0061906442469306,0.0087262365452651,0.00064030032208764,0.27652305509668,0.030413812651491,4.0,8.0,5.0,5.0,6.0,False,68
69,170.12,190.17,638.84,684.51,1,0,0,1,48.943048030395,8.409253800306,136.37828063965,0.063766,0.002572,-0.4731926732051,-3.7132699770593,7.2676977600458,8.1613575637736,-0.0075188020615378,0.0022023757442274,0.98721685752278,0.77193745573693,10.179922619617,1.0152672444562,0.10514565574634,10.206190590796,-0.029311861699515,-0.0025988799475314,0.0017256148986171,-0.029308018359984,-0.002703877894322,0.0016408719337824,0.27652305509668,0.030413812651491,4.0,8.0,5.0,5.0,6.0,False,69
70,171.37,191.73,639.35,685.68,1,0,0,1,48.943044258195,8.4092648902531,136.39691162109,0.061842,0.00055,-0.4729386732051,-3.7649260838038,7.3389841697759,8.2483495871365,0.0081974225419643,0.01569714494867,0.49535330965955,0.22497898877944,9.2753073479016,0.51231681998931,-0.35583288945459,9.270616547103,-0.012314199920819,-0.021971687348813,0.0026094603319835,-0.012308811256618,-0.022091942247252,0.0012787125820793,0.27652305509668,0.030413812651491,4.0,8.0,5.0,5.0,6.0,False,70
71,175.17,196.0,639.94,686.99,1,0,0,1,48.943040817291,8.4092750494615,136.42840576172,0.063084,-0.005794,-0.4731466732051,-3.7968354867363,7.3742944455708,8.2943217603379,0.019991857885733,-0.021587723155031,0.44463728954781,0.71759667362667,9.8305511031044,0.41682667148513,0.095981195864358,9.8574966843437,-0.0002813905602998,-0.054756139137209,0.0018233983204442,-0.00027312491240937,-0.054761728047159,-0.0016536097809915,0.27652305509668,0.030413812651491,4.0,8.0,5.0,5.0,6.0,False,71
72,179.06,200.43,640.54,688.34,1,0,0,1,48.943037357626,8.4092852645397,136.43934631348,0.061484,-0.01055,-0.4737106732051,-3.8021510689617,7.422263541977,8.3394427073686,0.00037806058070002,0.026826332135628,0.5817460935018,0.84236213574243,10.592961243843,0.49538634761439,0.1822354030113,10.629383184564,-0.013077997227165,-0.045555644476535,-0.0033660348237282,-0.013017939129247,-0.045260010228321,-0.0063231548537778,0.27652305509668,0.030413812651491,4.0,8.0,5.0,5.0,6.0,False,72
73,178.29,199.98,641.11,689.68,1,0,0,1,48.943033545956,8.4092965725295,136.46202087402,0.057467,-0.010835,-0.4741886732051,-3.8147959994806,7.4690632251291,8.3868537915827,-0.015056611083101,0.11742134508478,0.50764133802098,0.50108237773058,10.436490831182,0.39847524822034,-0.12008158391061,10.452961266741,-0.03491541762514,-0.0073452617336751,-0.0028805088067219,-0.034878141921226,-0.0071564472681237,-0.0037179047118098,0.27652305509668,0.030413812651491,4.0,8.0,5.0,5.0,6.0,False,73
74,177.5,199.53,641.7,691.06,1,0,0,1,48.943030016131,8.4093069376867,136.48371887207,0.056048,-0.008997,-0.4743286732051,-3.8533762501276,7.5023172953474,8.4340548298129,0.0020161128549983,0.16837251821464,0.61152308204814,0.42358929783146,10.137028171058,0.51043386530144,-0.1553450536238,10.15036246414,-0.01764743761634,0.016673405044024,-0.0022107338633678,-0.017633594183989,0.016774538372102,-0.0014576938066078,0.27652305509668,0.030413812651491,4.0,8.0,5.0,5.0,6.0,False,74
75,176.82,194.98,629.65,678.88,1,0,0,1,48.943026423987,8.4093174428157,136.51596069336,0.055332,-0.005155,-0.4742446732051,-3.8861521250888,7.5430849200821,8.4852902544211,0.012637637267292,0.17570269942962,0.60244516150242,0.46102868827924,9.5963909408552,0.53366536099479,-0.07459635090543,9.611157046988,-0.0073003525154909,0.03398772604479,-0.0017855626016267,-0.0073009455871887,0.034035090840368,3.6412073782771e-05,0.27652305509668,0.030413812651491,4.0,7.0,5.0,5.0,6.0,False,75
76,174.75,193.09,630.6,680.61,1,0,0,1,48.943022435363,8.4093290768431,136.54856872559,0.056425,-0.001545,-0.4745096732051,-3.9219760340073,7.5907975389275,8.5441001916062,0.021471139786986,0.15566814163626,0.53412242141881,0.53813697474874,9.7217177139359,0.50048429043847,-0.0073771190414803,9.7385068197507,0.0066400479733886,0.033314739860217,-0.0038514427478037,0.0066450630173843,0.033478547543089,-0.0019689102880625,0.27652305509668,0.030413812651491,4.0,7.0,5.0,5.0,6.0,False,76
77,173.07,191.64,631.47,682.31,1,0,0,1,48.943018811613,8.4093396416597,136.57127380371,0.057687,-7.8e-05,-0.4746046732051,-3.9519533505457,7.6285188162432,8.5913542315327,0.02956059274291,0.12620620849248,0.41643397384234,0.47326692267093,9.3407531030821,0.4073296202023,-0.058868989262258,9.3530746852074,0.013351261996832,0.015010341001649,-0.0017751717956642,0.013352499429469,0.015086693075182,-0.0009202214613066,0.26451843035978,0.030413812651491,4.0,7.0,5.0,5.0,6.0,False,77
78,175.34,194.36,632.04,683.77,1,0,0,1,48.943015123991,8.4093503025124,136.57543945312,0.057773,-0.001489,-0.4747466732051,-3.9682251844021,7.6682181385145,8.6341055201948,0.024487059023272,0.085307579642795,0.37472794306405,0.58423632767557,9.3718008297547,0.36551233067587,0.042364874663532,9.3903150940505,0.00024346993406187,-0.0096131894798721,0.00038720558494945,0.00024313958729053,-0.0096196389765901,-0.00017820658750547,0.26451843035978,0.019798989873223,4.0,7.0,5.0,5.0,6.0,False,78
79,177.11,196.57,632.92,685.53,1,0,0,1,48.943011064013,8.409362048268,136.57682800293,0.057658,-0.005391,-0.4748946732051,-3.9825301794584,7.7049819851143,8.6733458818617,0.018998772676737,0.0619173558483,0.38543074687352,0.54478607393431,9.6379515742337,0.35039756066879,-0.012748216770992,9.6547188861755,-0.0023615125385288,-0.031620727661849,0.0015688653494918,-0.0023621640357548,-0.031658434322832,-0.0002738512346925,0.26451843035978,0.019798989873223,4.0,7.0,5.0,5.0,6.0,False,79
80,178.94,198.86,633.83,687.36,1,0,0,1,48.943007316156,8.4093728755008,136.58584594727,0.057287,-0.007208,-0.4750826732051,-3.997763198487,7.7381010467198,8.7097675297835,0.016305970703628,0.083904922363615,0.43332243530209,0.68252785340076,10.117980270189,0.36964050600477,0.10023931444101,10.143061419243,-0.0033606616690368,-0.017557726069023,-0.00072028057113813,-0.0033492076324227,-0.017487475910211,-0.0017512207036355,0.26451843035978,0.019798989873223,4.0,7.0,5.0,5.0,6.0,False,80
81,176.74,196.89,634.51,689.02,1,0,0,1,48.943003222882,8.409384719037,136.59967041016,0.056254,-0.005533,-0.4753156732051,-4.0164204109458,7.7834299012727,8.7586128940512,0.010223079690009,0.13156697378396,0.56411618504491,0.6891149224162,10.201577554223,0.49870875310196,0.10812955980887,10.227650469185,-0.011121241710935,0.014464536324733,-0.0022298499580113,-0.011111196662699,0.014568293334325,-0.0014757323648279,0.26451843035978,0.019798989873223,4.0,7.0,5.0,5.0,6.0,False,81
82,174.45,194.86,635.22,690.73,1,0,0,1,48.942999471084,8.4093955525195,136.61247253418,0.055153,-0.001265,-0.4756186732051,-4.0328003301622,7.8197727831113,8.7984251643017,0.0058564830224719,0.1640729776464,0.42473543275885,0.60637525975455,9.9485044300348,0.39054440362633,0.050247538081711,9.9682677384616,-0.012026125333119,0.037091470282318,-0.0042942667193137,-0.012018340168562,0.037273183640343,-0.0022626041583806,0.26451843035978,0.019798989873223,4.0,7.0,5.0,5.0,6.0,False,82
83,173.19,193.92,635.77,692.35,1,0,0,1,48.942995753716,8.4094063433173,136.62393188477,0.055463,0.001535,-0.4756806732051,-4.0588187120131,7.8408965023327,8.8291197156827,0.017925079399511,0.14776233374425,0.30400442024645,0.37746370955301,9.442490902785,0.3034833878329,-0.14556622916967,9.4490107354824,0.0019054751116743,0.026879775791414,-0.0021908365823647,0.0019068791121151,0.026959801889704,-0.00071447101533801,0.26451843035978,0.019798989873223,4.0,7.0,5.0,5.0,6.0,False,83
84,171.82,192.94,636.35,694.03,1,0,0,1,48.942991966023,8.4094172206084,136.62561035156,0.056325,0.00199,-0.4754356732051,-4.0802271492625,7.8637047591679,8.8591970155983,0.027059077366344,0.090838051809054,0.27158114189721,0.40299310730452,9.1064952497042,0.28583520959653,-0.10702015104862,9.1143599898369,0.0062126074411532,0.0071747417549816,0.0024595215564316,0.0062188372523102,0.007025112357564,0.0028389579618588,0.26451843035978,0.019798989873223,4.0,7.0,5.0,5.0,6.0,False,84
85,172.55,194.1,637.35,696.15,1,0,0,1,48.942987800544,8.4094292132196,136.62490844727,0.058286,-4.9e-05,-0.4746486732051,-4.1010102163849,7.8953103749188,8.8967911923979,0.03604396884757,0.06246924793682,0.33353149834208,0.50676218162423,9.7799444269538,0.34038684889643,-0.055198327697359,9.7926600338612,0.016013393948147,-0.012850992107949,0.0073773927860956,0.016017995069834,-0.013253976007069,0.0066118184340936,0.26451843035978,0.019798989873223,4.0,9.0,5.0,5.0,6.0,False,85
86,173.28,195.3,638.39,698.35,1,0,0,1,48.942984043844,8.4094401172252,136.62452697754,0.058305,-0.001514,-0.4734516732051,-4.109947616101,7.9375531033732,8.9384219785873,0.032932843909265,0.067845266276771,0.48802004175243,0.74847738584196,9.8738923906355,0.4811686512616,0.17105425443554,9.9012120762461,-0.0012073456801934,-0.013688671082995,0.012256355072437,-0.0012170923838949,-0.014381768636692,0.011426416920451,0.26451843035978,0.019798989873223,4.0,9.0,5.0,5.0,6.0,False,86
87,174.03,196.56,639.48,700.64,1,0,0,1,48.942979898358,8.4094522019589,136.6148223877,0.055695,-0.001853,-0.4722636732051,-4.1042733302541,8.0015771786593,8.9927955869729,0.0098468256115182,0.075689137412468,0.53914283985045,0.91070533280199,9.8964231380854,0.52313011545236,0.34778922656785,9.9330098227223,-0.018906833366748,-0.0034463982905797,0.010860237063639,-0.018924019723288,-0.0040582315829688,0.010607587549968,0.2496898075613,0.016970562748477,4.0,9.0,5.0,5.0,6.0,False,87
88,173.57,196.56,640.54,702.95,1,0,0,1,48.942976132413,8.4094632760348,136.61090087891,0.052068,-0.000898,-0.4713206732051,-4.1082331761048,8.0632842681875,9.0495427454058,-0.0061808171396796,0.086189320200501,0.6160902011678,0.75592614527135,9.8657816414007,0.60227509940864,0.22247238183669,9.8931109874978,-0.033735696406508,0.0094934785052149,0.010086375614254,-0.033749828569244,0.0089368936650369,0.010522743830463,0.2496898075613,0.016970562748477,4.0,9.0,5.0,5.0,6.0,False,88
89,173.09,196.55,641.65,705.35,1,0,0,1,48.942972291478,8.4094744737499,136.59895324707,0.047978,0.000222,-0.4706366732051,-4.1230046052995,8.1324091871826,9.1178435724153,-0.016334073355493,0.08063093976644,0.68206598130104,0.74036808204901,9.5877526121347,0.67888246955154,0.25879057470127,9.6129294191912,-0.037853608164433,0.010423979819216,0.0067818958987188,-0.037857077938722,0.010066335402983,0.0072826538724986,0.2496898075613,0.016970562748477,4.0,9.0,5.0,5.0,6.0,False,89
90,174.09,198.14,642.74,707.8,1,0,0,1,48.942968111011,8.4094868260732,136.59112548828,0.042985,-0.000742,-0.4701106732051,-4.1421283587036,8.2041604167077,9.190474973541,-0.026226807310187,0.065848475611079,0.70596945026255,0.43823746986393,9.6255505790471,0.70338242643645,-0.00045906521410541,9.6362290322858,-0.045072993113244,-0.0077009053035029,0.0059617333043252,-0.045074622840411,-0.0079667264660482,0.0056178393536572,0.2496898075613,0.016970562748477,4.0,9.0,5.0,5.0,6.0,False,90
91,175.13,199.81,643.88,710.35,1,0,0,1,48.942964264246,8.4094981434519,136.5795135498,0.039135,-0.002759,-0.4694446732051,-4.1720841692006,8.2632671275233,9.2567503465395,-0.020814734005926,0.055308703545471,0.71922109251903,0.31850853411422,9.8079005362478,0.702694081719,-0.085767755845545,9.8142656468849,-0.037138425126635,-0.018341769809693,0.0077466288170576,-0.03715066029137,-0.018644505154796,0.0069479447389597,0.2496898075613,0.016970562748477,4.0,9.0,5.0,5.0,6.0,False,91
92,176.21,201.55,645.07,713.02,1,0,0,1,48.942960413092,8.40950951763,136.57481384277,0.039153,-0.004767,-0.4690316732051,-4.216011371367,8.3163005265735,9.3239238494928,-0.0011017926145644,0.060253780582035,0.69734794970877,0.27124465919295,9.9856478235567,0.66154086706337,-0.12323668952744,9.9910886124926,-0.0063616728831044,-0.020560675427818,0.0063285579736155,-0.0063815800326409,-0.020795113346636,0.0055095867055216,0.2496898075613,0.016970562748477,4.0,9.0,5.0,5.0,6.0,False,92
93,176.93,202.93,646.29,715.77,1,0,0,1,48.942956134562,8.4095221463566,136.56254577637,0.038619,-0.004672,-0.4681156732051,-4.2559240244408,8.3800808414022,9.3988538556834,0.012737830213869,0.092180816350581,0.7397283900954,0.45855805687228,10.053170033005,0.69266214043083,0.067298831511425,10.06673914049,-0.0045189021454186,0.0004862509915873,0.007809848565203,-0.0045560258246289,0.00018238556401691,0.007802256423664,0.2496898075613,0.016970562748477,4.0,9.0,5.0,5.0,6.0,False,93
94,176.34,202.93,647.67,718.74,1,0,0,1,48.942952211053,8.4095337510284,136.55651855469,0.038668,-0.003497,-0.4675886732051,-4.277800756299,8.4418137724411,9.4638098243549,0.010476482327488,0.11307907414472,0.65403102732746,0.42914379647878,9.9180485428218,0.61338037257169,0.046205526602892,9.9298523047747,0.0017031826045008,0.01079632984037,0.0053979428898228,0.0016790707020943,0.010579924346679,0.005814493828501,0.2496898075613,0.016970562748477,4.0,9.0,5.0,5.0,6.0,False,94
95,175.72,202.93,649.11,721.85,1,0,0,1,48.942948280829,8.4095453954548,136.55101013184,0.039034,-0.003292,-0.4666786732051,-4.3061540242531,8.491467200678,9.5208995289683,0.020591137612481,0.10802876777909,0.65336835761781,0.38923427521081,9.7363012683024,0.61999101399134,0.011627294131117,9.7463647873628,0.0050296750789732,0.0027814652402285,0.0083830052724994,0.0050008961329879,0.0024542725553838,0.0085002038295041,0.2496898075613,0.016970562748477,4.0,9.0,5.0,5.0,6.0,False,95
96,176.47,204.47,649.91,724.5,1,0,0,1,48.942943924278,8.4095582908572,136.53428649902,0.040302,-0.003915,-0.4662046732051,-4.3282168399159,8.5518241784219,9.5847158827258,0.019740729506044,0.096141022281922,0.63935934307825,0.49724334750145,9.6850129944034,0.60427840027343,0.1126051704089,9.6994594252844,0.011079815391483,-0.0050429877280319,0.0049369666521899,0.011063103512236,-0.0052339538379565,0.0047711697446411,0.2496898075613,0.016970562748477,4.0,9.0,5.0,5.0,6.0,False,96
97,177.26,206.09,650.76,727.28,1,0,0,1,48.942939968316,8.4095700754846,136.52319335938,0.039308,-0.005352,-0.4656556732051,-4.3405863262283,8.606724047349,9.6393103771872,0.011017726865712,0.082472410310403,0.61576975575862,0.55865169668218,9.7790110035721,0.57171911237631,0.17033326127052,9.7961866646997,-0.0063930123860752,-0.015006764349831,0.0060213349161963,-0.0064174635291695,-0.01523352755287,0.0053891843807888,0.2355949914578,0.016970562748477,4.0,9.0,5.0,5.0,6.0,False,97
98,176.73,207.09,646.88,714.49,1,0,0,1,48.942935606309,8.4095831423541,136.51409912109,0.038077,-0.00839,-0.4651616732051,-4.3553543424073,8.6643809728446,9.697454221115,0.0035331359365387,0.089392884020748,0.61810631855104,0.35325134288682,10.069682779537,0.54879497257737,-0.034987061638136,10.079947169885,-0.0080678180741436,-0.026958495060664,0.0055759703759222,-0.0080981777308318,-0.027153508443096,0.0044839980664182,0.2355949914578,0.016970562748477,4.0,9.0,5.0,5.0,6.0,False,98
99,178.11,209.45,648.76,718.17,1,0,0,1,48.942931603975,8.4095951039652,136.51040649414,0.038524,-0.01123,-0.4647256732051,-4.3850124460688,8.711375230814,9.752753346986,0.013361219053037,0.098044650354336,0.67439257149403,0.43355790796644,9.8803057993413,0.57889539933917,0.055026611648077,9.8959159250293,0.0043481761611053,-0.027559158609528,0.0053483977977104,0.0043071415821099,-0.027743690055462,0.0043460031864998,0.2355949914578,0.016970562748477,4.0,8.0,5.0,5.0,6.0,False,99
100,179.57,211.95,650.75,722.05,1,0,0,1,48.942927575514,8.409607153674,136.50840759277,0.038039,-0.012352,-0.4643576732051,-4.4039439117791,8.7716093262074,9.8150812367528,0.007251580898234,0.13133151238832,0.75108851103487,0.48987053053365,10.142728709372,0.63126703266541,0.10104848785157,10.162300479353,-0.0044292202809934,-0.0097425776403072,0.0040016372550899,-0.0044710026301534,-0.0098887500692042,0.0035701499773301,0.2355949914578,0.016970562748477,4.0,8.0,5.0,5.0,6.0,False,100
101,178.46,211.71,652.07,725.36,1,0,0,1,48.942923555162,8.4096192663525,136.51628112793,0.03732,-0.010773,-0.4639486732051,-4.4261115086728,8.8331114956558,9.8799960421703,0.0032451058453063,0.17004973796616,0.78422870392329,0.3870404241781,10.228625554098,0.66661649094507,0.0025052977388436,10.244342510256,-0.0042983656658311,0.012852834657487,0.0037365456839168,-0.0043461650711532,0.012703642862656,0.0041590827083645,0.2355949914578,0.016970562748477,4.0,8.0,5.0,5.0,6.0,False,101
102,177.29,211.46,653.47,728.85,1,0,0,1,48.942919109468,8.4096326610594,136.52626037598,0.037323,-0.008324,-0.4634836732051,-4.4541875898488,8.8863482186408,9.9401653486819,0.008619689283695,0.18256747547566,0.61563881372965,0.27251328004643,9.659762542246,0.52578099839778,-0.088525065362063,9.6685752507213,-0.00045162571894585,0.016857735385968,0.0044965741064366,-0.0004976860619184,0.016678109172345,0.0051155879861213,0.2355949914578,0.016970562748477,4.0,8.0,5.0,5.0,6.0,False,102
103,176.06,211.2,654.96,732.54,1,0,0,1,48.942915053577,8.4096449325851,136.53779602051,0.0376,-0.008317,-0.4630226732051,-4.4760211816474,8.9344974352207,9.992991866277,0.011261484213085,0.14872988482248,0.63547296505901,0.38923430001609,9.4035313869721,0.55682504406379,0.035596951652094,9.416522423231,0.00068740669817873,0.00075501119834571,0.0047347737911172,0.00064792872360926,0.00057662581575016,0.004763732474496,0.2355949914578,0.016970562748477,4.0,8.0,5.0,5.0,6.0,False,103
104,176.26,212.55,656.68,736.56,1,0,0,1,48.942910960931,8.4096572565574,136.53936767578,0.03733,-0.008752,-0.4626556732051,-4.4924702688631,8.989547891772,10.049589447216,0.0055198499761202,0.12311622329686,0.67323251754039,0.45877303966269,9.6546231797939,0.59010922913996,0.096477445603292,9.6704953685902,-0.002901544537641,-0.0024631037330254,0.0042710879026533,-0.0029373060451519,-0.0026213925995311,0.0041503960331593,0.2355949914578,0.016970562748477,4.0,8.0,5.0,5.0,6.0,False,104
105,176.47,213.99,658.51,740.83,1,0,0,1,48.94290644228,8.4096709685509,136.55010986328,0.037022,-0.00841,-0.4620806732051,-4.5164288244927,9.0516736807666,10.115874333043,0.0050025672592564,0.13692217835582,0.68012112524392,0.42602661935247,9.9171184204434,0.59455733239165,0.05844839135856,9.9316080986818,-0.00010957393750048,0.0036282631352484,0.0039758404784128,-0.0001453805279854,0.0034786407733307,0.0041050291021862,0.2355949914578,0.016970562748477,4.0,8.0,5.0,5.0,6.0,False,105
106,173.79,191.72,632.23,673.12,0,1,0,1,48.942902331431,8.4096834796379,136.56192016602,0.036565,-0.008004,-0.4616926732051,-4.5367857690069,9.1072107466714,10.174660636126,0.0023000949081572,0.14064961202215,0.6242316499441,0.42666068615103,9.768432417512,0.54400545151237,0.0669860919023,9.7823529364439,-0.0038446752519259,0.0035059560556276,0.004198856426353,-0.0038800081484157,0.0033494616405345,0.0042942646412847,0.22219360926903,0.016970562748477,4.0,8.0,5.0,5.0,6.0,False,106
107,173.58,191.76,632.53,673.92,0,1,0,1,48.942898200879,8.4096960790928,136.57278442383,0.036498,-0.008047,-0.4615006732051,-4.5573452570335,9.1637848299912,10.23446906639,-0.0017048517929533,0.13654798652761,0.67432013629101,0.40237960679743,9.7552364299706,0.59584859382488,0.045000829685889,9.7685489996955,-0.001746366992622,-0.00023205526726533,0.0028517835309112,-0.0017691923451351,-0.00033625196684056,0.0028276076728788,0.22219360926903,0.016970562748477,4.0,8.0,5.0,5.0,6.0,False,107
108,173.36,191.8,632.84,674.74,0,1,0,1,48.942893610262,8.4097100223073,136.58195495605,0.036336,-0.007849,-0.4612576732051,-4.585209181789,9.2213751748165,10.298441786383,0.00040705827053425,0.13173297700579,0.66424064407947,0.29958674280577,9.7312063922718,0.58694038688516,-0.055102514980314,9.7406439898565,-0.0015640485640389,0.0015652496378601,0.002233167958759,-0.0015823429994111,0.0014827639691541,0.0022764277138155,0.22219360926903,0.016970562748477,4.0,8.0,5.0,5.0,6.0,False,108
109,178.94,194.38,504.02,525.21,1,0,0,1,48.942889409758,8.4097228125107,136.59339904785,0.03762,-0.007322,-0.4611136732051,-4.6147397805209,9.272659513915,10.357508919256,0.0062911666712547,0.13831326815254,0.63711273596799,0.2782631630008,9.8512242145972,0.56205178507463,-0.086542130274694,9.8593452079369,0.010981077292626,0.0050475630850816,0.00060147287571953,0.010974291817785,0.0050226364207562,0.00087071842932021,0.22219360926903,0.016970562748477,4.0,7.0,5.0,5.0,6.0,False,109
110,177.82,193.48,502.53,524.08,1,0,0,1,48.942885213976,8.4097356221184,136.60580444336,0.037927,-0.006449,-0.4610066732051,-4.6352338842014,9.3196383649543,10.408699639295,0.0048937435377222,0.14091041247113,0.52663906627691,0.47733695936512,9.8806761011361,0.45750870788807,0.10583847827902,9.895184229504,0.0065463127908,0.0094482299166939,0.00044998840003023,0.0065404910020074,0.0094248787177107,0.00085207953941616,0.22219360926903,0.016970562748477,4.0,7.0,5.0,5.0,6.0,False,110
111,178.41,194.28,500.91,522.84,1,0,0,1,48.942880574237,8.4097497709449,136.61921691895,0.039674,-0.006599,-0.4610426732051,-4.6599839813508,9.3610347236828,10.456784394808,0.0090491716616556,0.13480619123431,0.44197744333956,0.30698919408634,9.5701754395533,0.37888293976554,-0.065264551079397,9.5776006133598,0.013992387285942,-0.0003306311662545,-0.0005014696576576,0.013995366545871,-0.00031032075542936,-0.00042514374389905,0.22219360926903,0.016970562748477,4.0,7.0,5.0,5.0,6.0,False,111
112,179.0,195.1,499.28,521.6,1,0,0,1,48.942876352299,8.4097626672497,136.63078308105,0.040417,-0.007179,-0.4608476732051,-4.6751145111036,9.4003749321129,10.498747904723,0.006416267878357,0.12753276639637,0.47010110702018,0.54404265476097,9.8144261409977,0.4015081997704,0.15188305201221,9.8314506282229,0.0090138301610857,-0.0036289462958855,0.00092851661419082,0.0090081901832557,-0.0036629910730864,0.00084446687115217,0.22219360926903,0.016970562748477,4.0,7.0,5.0,5.0,6.0,False,112
113,178.46,194.8,497.63,520.36,1,0,0,1,48.942871657777,8.409776951725,136.64070129395,0.040747,-0.005994,-0.4609256732051,-4.6854162884235,9.4366721452226,10.535839187611,-0.00046191721631181,0.13952979040049,0.30008696237713,0.44243754521441,9.949452331885,0.2340568154963,0.038567791269775,9.961041185471,0.0034301398375527,0.011132151881595,-0.0012492572386712,0.0034348274683828,0.011173823744843,-0.00077050359711706,0.22219360926903,0.016970562748477,4.0,7.0,5.0,5.0,6.0,False,113
114,177.91,194.49,495.94,519.08,1,0,0,1,48.94286740269,8.4097899248164,136.65319824219,0.041301,-0.004429,-0.4607366732051,-4.689351794751,9.4488912605039,10.54853383758,-0.0013202463183317,0.15415961402378,0.14405253736942,0.45717461786313,9.7680649311678,0.091662644547744,0.056936300026488,9.7792941480232,0.0062976711267825,0.0160818908368,0.00017692819866559,0.0062934249590856,0.01606112211407,0.00086894022752401,0.22219360926903,0.016970562748477,4.0,7.0,5.0,5.0,6.0,False,114
115,177.34,194.17,494.19,517.77,1,0,0,1,48.942863156352,8.4098029062369,136.66412353516,0.040612,-0.00453,-0.4606776732051,-4.6884096377146,9.4639310711471,10.561586526603,-0.0083450245602627,0.13536991978679,0.17767247232295,0.41522621828605,9.6319104112387,0.13344707466409,0.02065149095138,9.6415794953273,-0.0057828576313715,0.00091416425474602,0.0010649704079087,-0.0057877236418677,0.00087003266719312,0.0010779956040142,0.22219360926903,0.016970562748477,4.0,7.0,5.0,5.0,6.0,False,115
116,177.06,194.15,492.23,516.26,1,0,0,1,48.942858485464,8.4098172198149,136.67425537109,0.039794,-0.004566,-0.4607706732051,-4.6881162619882,9.4842474385016,10.579653786193,-0.017587469602419,0.12393763452521,0.20787005229374,0.40298119744907,9.8056774937509,0.16277950947197,0.0084103183390814,9.8148588757161,-0.0074402272952213,0.0004270179201477,-0.00064230285719121,-0.0074372673662046,0.00045224599896004,-0.00065828014509577,0.2116246677493,0.01838477631085,4.0,7.0,5.0,5.0,6.0,False,116
117,176.77,194.13,490.2,514.7,1,0,0,1,48.942854244604,8.4098302349816,136.6851348877,0.039071,-0.003537,-0.4605796732051,-4.6957460295252,9.4989844088824,10.596247396944,-0.016578995730616,0.12933011154335,0.13235894069414,0.35327377657327,9.7898355601033,0.09216653934705,-0.032715420559436,9.7966972005409,-0.0058847284571939,0.0099491174177273,0.0012048022647583,-0.0058905939774519,0.0098944225603883,0.0015680889611404,0.2116246677493,0.01838477631085,4.0,7.0,5.0,5.0,6.0,False,117
118,176.48,194.12,488.1,513.1,1,0,0,1,48.942849958826,8.4098433046284,136.69232177734,0.038766,-0.003115,-0.4608046732051,-4.6969496644071,9.5082415167838,10.605073456953,-0.020146914002206,0.13222970976792,0.05383177823055,0.45475986249175,9.7295901905456,0.020248002273901,0.073882367700143,9.7400971672159,-0.0061672029355443,0.005717032500199,-0.002162636989288,-0.0061608272337878,0.0057970527510723,-0.0019576514724579,0.2116246677493,0.01838477631085,4.0,7.0,5.0,5.0,6.0,True,118
119,176.17,194.1,485.94,511.44,1,0,0,1,48.942845277436,8.409857637781,136.70272827148,0.038116,-0.003035,-0.4608516732051,-4.6938347142432,9.504301027189,10.600157023568,-0.022187334687387,0.12914416759477,-0.10339262528384,0.34819823296619,9.766216469485,-0.1339160244408,-0.026161349108947,9.7720606894396,-0.0035062558473541,0.0015213233823258,-0.00097496610503003,-0.0035034200724071,0.0015577048660091,-0.00092641243975402,0.2116246677493,0.01838477631085,4.0,8.0,5.0,5.0,6.0,True,119
120,177.17,191.36,462.57,479.94,1,0,0,1,48.942841003969,8.4098706621186,136.71479797363,0.038267,-0.002983,-0.4610276732051,-4.690186082015,9.4849132350927,10.581167238351,-0.018058879517295,0.12678216463321,-0.23817441214631,0.40588587555357,9.7794555443679,-0.26777993535206,0.030685383134368,9.7870740977493,-0.0015581486065715,0.00056903318513329,-0.0019907937327414,-0.0015522399359469,0.00064494472439787,-0.001972094107068,0.2116246677493,0.01838477631085,4.0,8.0,5.0,5.0,6.0,True,120
121,177.16,191.54,459.97,477.67,1,0,0,1,48.942836771473,8.4098836346714,136.73120117188,0.037015,-0.003434,-0.4612016732051,-4.6742726830884,9.4632565662244,10.554688672656,-0.024307859791463,0.12533282667264,-0.32207675692344,0.40315853350626,9.7288220843035,-0.35311113854782,0.037017031045337,9.7360434279631,-0.010648153252891,-0.0044653505705065,-0.0021074260316343,-0.010640687490567,-0.0043832049722646,-0.0023066695066305,0.2116246677493,0.01838477631085,4.0,8.0,5.0,5.0,6.0,False,121
122,177.14,191.73,457.3,475.34,1,0,0,1,48.942832122932,8.4098978708178,136.75157165527,0.036979,-0.003889,-0.4616846732051,-4.6619914852418,9.4285136438707,10.518102359441,-0.023762976731118,0.13652877840742,-0.28915730427962,0.37208706701673,9.9840031370917,-0.32713849888971,0.0017427716483379,9.989821110977,-0.0018772800101584,-0.0018501592911336,-0.0042124471303319,-0.0018612048668725,-0.0016928392272912,-0.0042834700287142,0.2116246677493,0.01838477631085,4.0,8.0,5.0,5.0,6.0,True,122
123,177.13,191.93,454.56,472.95,1,0,0,1,48.942827889959,8.409910764412,136.76733398438,0.036631,-0.0025,-0.4622076732051,-4.6508647928303,9.4012668036026,10.488740241457,-0.026180869349445,0.14544352905504,-0.30766612621059,0.40526002915128,9.7849935468224,-0.33924420233313,0.045461071993926,9.7922942496287,-0.0021655425306848,0.012393581316654,-0.0061556053516671,-0.002147906338018,0.01261126278879,-0.0057038909364214,0.2116246677493,0.01838477631085,4.0,8.0,5.0,5.0,6.0,True,123
124,177.11,192.14,451.73,470.49,1,0,0,1,48.942823679125,8.4099236057039,136.78356933594,0.035902,-0.001797,-0.4628886732051,-4.6398231577917,9.3680053359794,10.454029555214,-0.027823438820556,0.14940908123996,-0.39145431016696,0.084261800533796,9.4984559547791,-0.41410291702482,-0.25926811404422,9.4945286490136,-0.0044717898845622,0.0097547204829056,-0.006869651473564,-0.0044564218808596,0.0099964957746795,-0.0065247446565023,0.2116246677493,0.01838477631085,4.0,8.0,5.0,5.0,6.0,False,124
125,177.1,192.34,448.82,467.95,1,0,0,1,48.942819047947,8.4099376721234,136.79905700684,0.036821,-0.002259,-0.4634156732051,-4.6352707997553,9.3297023658051,10.417709234128,-0.021155296906299,0.13003249051259,-0.30304179165928,0.26679517830389,9.6260213244289,-0.32493742954814,-0.086272998685272,9.6286956000273,0.0026958887330957,-1.7280435596869e-05,-0.0050599116434116,0.0027073511402,0.00016794071966151,-0.0050512421166706,0.2116246677493,0.01838477631085,4.0,8.0,5.0,5.0,6.0,False,125
126,176.39,191.87,446.02,465.54,1,0,0,1,48.94281488198,8.4099503136743,136.82077026367,0.03723,-0.001802,-0.4637516732051,-4.6257891764588,9.2940442218167,10.381563964938,-0.018127438206799,0.13915209773026,-0.30048819021704,0.30737462687223,10.071072890633,-0.32163545902843,-0.066582056596143,10.074917178398,0.0018692591115458,0.0056467014080031,-0.0037401587499499,0.0018769681114939,0.0057813601962435,-0.0035221546381869,0.20173497465735,0.019798989873223,4.0,8.0,5.0,5.0,6.0,True,126
127,175.65,191.37,443.13,463.05,1,0,0,1,48.942810709311,8.4099629135982,136.84251403809,0.037599,-0.000678,-0.4642966732051,-4.6123932724475,9.2600518297185,10.345160699874,-0.019613797877657,0.14576482952892,-0.38256134366504,0.37572701020447,9.6808607237183,-0.39419037894935,0.013328654513795,9.6877482868804,0.0029270202694277,0.0095802807358731,-0.0052555085644226,0.002932700011717,0.0097702937897883,-0.0048892582918241,0.20173497465735,0.019798989873223,4.0,8.0,5.0,5.0,6.0,True,127
128,176.19,192.16,440.31,460.64,1,0,0,1,48.942806084475,8.4099767285796,136.86141967773,0.038192,-0.001506,-0.4648966732051,-4.5957572905333,9.2081502555322,10.291294253453,-0.017173401700095,0.13214320148136,-0.52402590514279,0.34753969759669,9.8706567248841,-0.53549357900733,-0.026566483232126,9.8761574422503,0.0049636423888625,-0.0060809892680214,-0.0049662464157531,0.0049697482594653,-0.0058884603355318,-0.0051889004547136,0.20173497465735,0.019798989873223,4.0,8.0,5.0,5.0,6.0,False,128
129,176.75,192.97,437.4,458.16,1,0,0,1,48.942801915025,8.4099892490825,136.87243652344,0.037649,-0.002217,-0.4655156732051,-4.5728118014585,9.1621660064067,10.239890639028,-0.022944218487586,0.12904976573878,-0.44063302193733,0.33343534508115,9.7554308051328,-0.45714724443129,-0.035634434714404,9.7603575171125,-0.0032367214397823,-0.0093564960301597,-0.0055380851911999,-0.0032266395336395,-0.009140441382142,-0.0058931191072203,0.20173497465735,0.019798989873223,4.0,8.0,5.0,5.0,6.0,True,129
130,177.33,193.81,434.39,455.6,1,0,0,1,48.942797778934,8.4100017024073,136.8842010498,0.037999,-0.002983,-0.4661576732051,-4.5580397780474,9.1182533521041,10.194006396891,-0.022761001434212,0.13509508665259,-0.4464336674868,0.29761999074872,10.00548601367,-0.47233179194556,-0.080961789655611,10.008407986279,0.0029122846420244,-0.0072614367091358,-0.0060619996661728,0.0029287514758952,-0.007026976765127,-0.0063221098542366,0.20173497465735,0.019798989873223,4.0,8.0,5.0,5.0,6.0,False,130
131,177.59,194.34,431.06,452.74,1,0,0,1,48.942793244497,8.4100153324619,136.89961242676,0.037352,-0.002812,-0.4667986732051,-4.5400951607739,9.0721681430222,10.144756724702,-0.024854287946632,0.15066213480208,-0.40053777114839,0.27645274716696,9.9821119936981,-0.42802349922781,-0.099502875920367,9.9843391588159,-0.0054848052453651,-0.0012083563543357,-0.0058557475945044,-0.0054685286610844,-0.00098727043478056,-0.0059110426565824,0.20173497465735,0.019798989873223,4.0,8.0,5.0,5.0,6.0,True,131
132,177.87,194.9,427.62,449.79,1,0,0,1,48.942789126434,8.4100276787489,136.90977478027,0.037383,-0.002005,-0.4673166732051,-4.5237070103393,9.0300173124607,10.099725900538,-0.026062464276901,0.15742277260085,-0.41670927677588,0.38326927450838,9.8453687117659,-0.44014377623249,0.014293635466027,9.8518294101139,-0.0014479717516653,0.0064057220562953,-0.0056587218710839,-0.0014351623143635,0.0066131546174996,-0.0054177694036243,0.20173497465735,0.019798989873223,4.0,8.0,5.0,5.0,6.0,True,132
133,178.16,195.47,424.06,446.75,1,0,0,1,48.942784639463,8.4100412199761,136.91758728027,0.036032,-0.001827,-0.4678346732051,-4.5020545546116,8.9795252842319,10.044878244244,-0.028116347228214,0.14751052448834,-0.53013373629576,0.28460911263327,9.7429040462408,-0.54778744777841,-0.072706925476422,9.7458976908796,-0.010910858074138,-0.00050313998119406,-0.004775316479257,-0.010901928400742,-0.00032804256496562,-0.0048051673568956,0.20173497465735,0.019798989873223,4.0,8.0,5.0,5.0,6.0,False,133
134,178.45,196.07,420.38,443.6,1,0,0,1,48.942780588078,8.4100534403447,136.92793273926,0.036107,-0.003427,-0.4684206732051,-4.4817150178379,8.9335434444575,9.9946482602885,-0.031205996205735,0.14162804410123,-0.43405330845101,0.37082912011588,9.733142919535,-0.45951583745879,0.018997954539363,9.7390780724611,-0.00034748736590701,-0.014510042021632,-0.0048478076529256,-0.00033354076148317,-0.014325650141923,-0.0053639288578889,0.20173497465735,0.019798989873223,4.0,8.0,5.0,5.0,6.0,False,134
135,178.76,196.69,416.56,440.35,1,0,0,1,48.942776540496,8.4100655892764,136.9409942627,0.034937,-0.004566,-0.4689466732051,-4.4648150668859,8.8917198216942,9.949682584972,-0.032759203194876,0.13247358444111,-0.37425965681066,0.28873650920224,9.7931195004669,-0.41260051878191,-0.058733322223277,9.7957425287543,-0.009595847499526,-0.011751831407728,-0.0049442569931708,-0.0095747348398726,-0.011568978555966,-0.0053977859790355,0.19258764238652,0.019798989873223,4.0,8.0,5.0,5.0,6.0,False,135
136,177.62,195.87,412.73,437.1,1,0,0,1,48.942772464277,8.4100776897201,136.95193481445,0.035303,-0.003264,-0.4695196732051,-4.4541607675807,8.8554898099057,9.9125317720059,-0.031255046144559,0.15772802218345,-0.34712334201685,0.24045130137326,10.093145367159,-0.38638777123687,-0.11556778811006,10.093964771558,8.8903280688884e-05,0.010606376115444,-0.0065083494753827,0.00011233047088633,0.010829362191172,-0.0061303170955279,0.19258764238652,0.019798989873223,4.0,8.0,5.0,5.0,6.0,True,136
137,176.44,195.02,408.76,433.74,1,0,0,1,48.942767983229,8.4100909336314,136.96255493164,0.035208,-0.000475,-0.4697596732051,-4.4430239236939,8.806925720378,9.8641714288354,-0.023366923080384,0.17102164918779,-0.43745692487128,0.24040099770925,9.6591411610052,-0.45361969408932,-0.099901473201556,9.6609523096901,-0.0006465005485123,0.02025004968943,-0.003495653446979,-0.00064045574011231,0.020360667571151,-0.0027817564438633,0.19258764238652,0.019798989873223,4.0,8.0,5.0,5.0,6.0,True,137
138,175.22,194.14,404.65,430.26,1,0,0,1,48.942763883457,8.4101028820997,136.96546936035,0.036346,0.000435,-0.4698406732051,-4.4309178725864,8.7592373905934,9.816164359509,-0.01425045946247,0.14477946885697,-0.47530494218284,0.21358806429881,9.5058421069322,-0.47637765972303,-0.12717236164044,9.5073579701765,0.00821207091319,0.0092716753638248,-0.0017010617312321,0.0082131289298862,0.0093265495879359,-0.0013722310954022,0.19258764238652,0.019798989873223,4.0,7.0,5.0,5.0,6.0,True,138
139,176.37,195.66,401.18,427.41,1,0,0,1,48.942759443721,8.4101159445248,136.97132873535,0.037643,-0.000112,-0.4695296732051,-4.4115915032596,8.7074030397372,9.7611966826412,-0.0066450704145317,0.12190430435608,-0.51033117755337,0.40817017732352,9.759403360727,-0.51023980500708,0.047449333433719,9.7679043177244,0.012071387091853,-0.0021704028482328,0.0017634185149045,0.012071851013488,-0.0022344407814069,0.0016798765038114,0.19258764238652,0.019798989873223,4.0,7.0,5.0,5.0,6.0,False,139
140,174.251667954,195.501667954,644.901991644,701.401991644,1,0,0,1,48.942755403627,8.4101277502809,136.97494506836,0.039078,-0.001144,-0.4694456732051,-4.3906884390255,8.6659839309372,9.714802875248,-0.0052395781274709,0.11945093407925,-0.47539712990419,0.43130272796179,9.76169259209,-0.48232984475571,0.056474726985252,9.7707617476538,0.011760640547837,-0.00764743252556,0.00096639516979593,0.011760461459971,-0.007678549590024,0.00067809347993245,0.19258764238652,0.019798989873223,4.0,7.0,5.0,5.0,6.0,False,140
141,174.176951612,195.426951612,645.879462381,702.379462381,1,0,0,1,48.942751410682,8.4101394894845,136.98031616211,0.039313,-0.00257,-0.4692796732051,-4.3656492024312,8.6249947463617,9.6669213581281,-0.0078166504639601,0.11922767949392,-0.45288390046336,0.43505222521336,9.9208298178943,-0.47153318980906,0.048679083932971,9.9294093582837,0.006369980895674,-0.012214116750189,0.0018537951776878,0.0063671523714655,-0.012277289182522,0.0013891089509727,0.19258764238652,0.019798989873223,4.0,7.0,5.0,5.0,6.0,True,141
142,180.37,203.46,170.52,208.67,1,0,0,1,48.942747012052,8.4101523494654,136.98289489746,0.039749,-0.003232,-0.4689166732051,-4.3425890901365,8.5805218309836,9.6168289118355,-0.0059021351500575,0.1315192376658,-0.45470161414388,0.39358167757559,9.895552827513,-0.48275911384986,0.0011802820768754,9.902080346842,0.0014563464282467,-0.0068989999617305,0.003649072542321,0.001446098220137,-0.0070385061863745,0.0033766754639169,0.19258764238652,0.019798989873223,4.0,7.0,5.0,5.0,6.0,False,142
143,179.95,203.52,162.25,200.85,1,0,0,1,48.942743057251,8.4101640063889,136.98785400391,0.03915,-0.003797,-0.4683456732051,-4.3159214442824,8.5409950593071,9.5695209730588,-0.0074736326277899,0.14353048841902,-0.42348289084483,0.50499358606212,9.987130977513,-0.45860025326108,0.11143577946168,9.9977327760638,-0.0044610906141239,-0.0049250143016332,0.0057749177957241,-0.0044812629334271,-0.0051483084871584,0.0055594558296186,0.19258764238652,0.019798989873223,4.0,7.0,5.0,5.0,6.0,True,143
144,179.51,203.58,153.64,192.69,1,0,0,1,48.942739120904,8.4101756131792,136.9917755127,0.038807,-0.003436,-0.4678756732051,-4.2920844411353,8.5050241489379,9.5266662381259,-0.0078738664782866,0.1459427927325,-0.45441674820875,0.41882670944045,9.6821404727909,-0.48864849981158,0.04044448386342,9.6894759085421,-0.0047677253524582,0.0018161426166783,0.0052468987931736,-0.0047863168763019,0.0016099054730606,0.0052965581566494,0.19258764238652,0.019798989873223,4.0,7.0,5.0,5.0,6.0,False,144
145,184.268913849,326.058913849,874.940611151,1114.43061115,1,0,0,1,48.942734791806,8.4101882649967,136.99220275879,0.038944,-0.002245,-0.4671236732051,-4.2686644107976,8.4617883882723,9.4775178763967,-0.0026794872352892,0.15053614447903,-0.45524225161814,0.48414211721396,9.9554341408097,-0.48346220596438,0.097471765566898,9.9654562319079,0.0016544884916705,0.010701670625397,0.0056232492864815,0.0016371586944468,0.010475596668698,0.0060357534297366,0.18270194306575,0.015556349186104,4.0,7.0,5.0,5.0,6.0,False,145
146,192.48923574,334.27923574,908.096583341,1147.58658334,1,0,0,1,48.942730899389,8.4101997491751,136.99848937988,0.038744,-0.000483,-0.4665436732051,-4.2438684996322,8.4237494973431,9.432390019723,-0.0018139829246533,0.15086381234677,-0.44172041605424,0.47361908097728,9.6905191201173,-0.45436165271416,0.096441829029546,9.7010700124212,-0.0031158051770415,0.014412339463185,0.0049146218133469,-0.0031231164547288,0.014210321218599,0.0054715771364324,0.18270194306575,0.015556349186104,4.0,7.0,5.0,5.0,6.0,True,146
147,178.07,203.78,125.55,166.0,1,0,0,1,48.942726993822,8.4102111718656,136.99751281738,0.038192,0.000632,-0.4659106732051,-4.2187442322081,8.3828269933356,9.3845401274363,-9.6504769149996e-05,0.13427468139924,-0.50359273658246,0.38243481242721,9.6596311478146,-0.50277383589715,0.011469289765326,9.6673196527437,-0.0041250353220316,0.0097417225259178,0.0050578174190037,-0.0041248028571276,0.0095404236690481,0.0054296605207803,0.18270194306575,0.015556349186104,4.0,7.0,5.0,5.0,6.0,False,147
148,178.43,204.76,115.31,156.22,1,0,0,1,48.942722758358,8.4102236602341,136.9997253418,0.038386,0.000958,-0.4650896732051,-4.1947185191084,8.3354466952966,9.3314136295527,0.0067430366468581,0.11532572711104,-0.50677802744604,0.4412617562989,9.6510017077668,-0.49940352137726,0.070008238174221,9.6612344074274,-0.0015550406653215,0.0037085694434626,0.006783826012455,-0.0015495835249386,0.0034451167205035,0.0069225197490008,0.18270194306575,0.015556349186104,4.0,7.0,5.0,5.0,6.0,False,148
149,178.81,205.78,104.61,145.99,1,0,0,1,48.942718903218,8.4102349425104,136.99842834473,0.039576,0.000519,-0.4644846732051,-4.1781200896178,8.2933827271929,9.2863645124792,0.017003359372708,0.10346933516957,-0.38556409359332,0.34713978397717,9.7683771424084,-0.37838187985413,-0.032924228000338,9.7747829945841,0.011527195594334,-0.003554549967694,0.0058648933084337,0.011531418658228,-0.0037797521472086,0.0057124570212811,0.18270194306575,0.015556349186104,4.0,7.0,5.0,5.0,6.0,True,149
150,179.21,206.85,93.43,135.26,1,0,0,1,48.942715090619,8.4102461612932,137.00106811523,0.040825,0.000882,-0.4639406732051,-4.1575853085543,8.2549760956018,9.2428183591143,0.02110472750222,0.10012932904427,-0.46054991653762,0.48589269460032,9.8029018747023,-0.45252648403853,0.091532290404207,9.8149407103066,0.010394133019444,0.0014748094665954,0.0050869384465638,0.010398326383858,0.0012692547979305,0.0051345092442822,0.18270194306575,0.015556349186104,4.0,7.0,5.0,5.0,6.0,True,150
151,179.63,207.98,81.72,124.01,1,0,0,1,48.942710901451,8.4102584237068,137.00190734863,0.041712,0.000713,-0.4633706732051,-4.1322814954773,8.209080051717,9.1904365248541,0.024806881252399,0.10319920653154,-0.4867491143583,0.41862994438872,9.8482361213788,-0.4787014056975,0.01312996320947,9.8575225956067,0.0091197254334408,-0.001474780760561,0.004334058554956,0.0091232912897754,-0.0016515736929453,0.0042622591452007,0.18270194306575,0.015556349186104,4.0,7.0,5.0,5.0,6.0,False,151
152,180.07,209.16,69.45,112.2,1,0,0,1,48.942707127852,8.4102695288021,137.00088500977,0.041569,-0.000837,-0.4627396732051,-4.1066084563317,8.1661711033447,9.1405640059083,0.026118168938841,0.092489366580361,-0.47669977739339,0.53131714252842,9.5611987420144,-0.47659746723539,0.1318159748127,9.5750900822864,-0.0037785955398987,-0.014379115236833,0.0066572360843401,-0.0037791586195774,-0.01464451053035,0.0060441045674588,0.18270194306575,0.015556349186104,4.0,7.0,5.0,5.0,6.0,False,152
153,180.78,210.65,57.08,100.3,1,0,0,1,48.942703370789,8.4102805507597,137.00248718262,0.041319,-0.003056,-0.4622426732051,-4.0802922293523,8.1254875163973,9.0923945193721,0.026489225198168,0.090138357832966,-0.41031706695137,0.4326371228256,9.9108076312897,-0.42925011265148,0.02323567531115,9.9195104613219,-0.00018472915516152,-0.020153398946239,0.0041355994503413,-0.00018813150533333,-0.020307155986768,0.0033050650889402,0.18270194306575,0.015556349186104,4.0,7.0,5.0,5.0,6.0,True,153
154,181.52,212.22,44.11,87.78,1,0,0,1,48.942699248605,8.4102925987079,137.00651550293,0.042025,-0.004388,-0.4616796732051,-4.0609745014305,8.0797636426077,9.0428378759462,0.034124107296773,0.10932219936394,-0.39797528078972,0.41876048408101,10.002840348292,-0.43515624168418,0.00026494866719363,10.010083363987,0.0029537536281945,-0.011560261234635,0.0047757574020072,0.0029378909745054,-0.011749999589162,0.0043017007083619,0.18270194306575,0.015556349186104,4.0,7.0,5.0,5.0,6.0,False,154
155,182.31,213.87,30.46,74.59,1,0,0,1,48.942695549783,8.410303516211,137.01580810547,0.040944,-0.003869,-0.4614186732051,-4.0323550659953,8.044819066403,8.9987923447423,0.027470268653181,0.12961365362828,-0.37243569755594,0.65119825799064,9.9476660460784,-0.41310353976641,0.23757350641588,9.9644939530252,-0.011012246005691,0.0040073212070859,0.0022933706400462,-0.011021999453308,0.0039083837030722,0.0024096303699888,0.17422973339818,0.014142135623731,4.0,7.0,5.0,5.0,6.0,True,155
156,180.98,213.31,16.07,60.5,1,0,0,1,48.94269149803,8.41031546632,137.02586364746,0.039917,-0.002499,-0.4613426732051,-4.0060218459957,8.0032202053707,8.9498136034586,0.024223913013148,0.14343927757799,-0.43153099597493,0.37311289236206,9.8048034403893,-0.46251917710079,-0.023718518725042,9.8105540236975,-0.0099698900515541,0.011680775691818,-7.4761454574869e-05,-0.0099715936926479,0.011673658053412,0.00036379989207378,0.17422973339818,0.014142135623731,4.0,7.0,5.0,5.0,6.0,True,156
157,179.58,212.72,0.97,45.7,1,0,0,1,48.942687832754,8.4103262844084,137.03283691406,0.039674,-0.001182,-0.4609326732051,-3.9970066052626,7.9544154445563,8.9020874462843,0.040017084376224,0.14274124187538,-0.44820595593954,0.23704941518435,9.7459424571033,-0.46616094198683,-0.15069288694764,9.7468658877882,-0.0022223324202628,0.011843765046628,0.0031514102814204,-0.0022277606487439,0.011709533120689,0.0036110844246485,0.17422973339818,0.014142135623731,4.0,7.0,5.0,5.0,6.0,True,157
158,179.71,213.79,0.0,30.63,1,0,0,1,48.942684166321,8.4103370230148,137.03721618652,0.040492,-0.000344,-0.4606036732051,-3.9807079302428,7.9060602245339,8.8515145578496,0.049973910203963,0.12798729858242,-0.54132272887171,0.45300760775429,9.6306648784306,-0.54929336852153,0.065757710090401,9.6407165621482,0.0049083566571844,0.0087763792179862,0.0030369265118828,0.0049057924539397,0.0086473705871781,0.0033881490555181,0.17422973339818,0.014142135623731,4.0,7.0,5.0,5.0,6.0,True,158
159,179.84,214.92,0.0,14.71,1,0,0,1,48.942680203877,8.4103487603109,137.0435333252,0.040366,0.000811,-0.4604076732051,-3.9444817033697,7.8388225758589,8.775167283938,0.050123684052953,0.11096396020182,-0.88142977212103,0.37591941638056,9.7070405460238,-0.87918166439608,-0.015575872993653,9.7146341971809,0.00060882338397034,0.010443909812165,0.0010029432433517,0.00060829810772953,0.010395086507596,0.0014230132301523,0.17422973339818,0.014142135623731,4.0,7.0,5.0,5.0,6.0,True,159
160,177.43,207.85,291.14,342.37,1,0,0,1,48.942676627988,8.4103592495845,137.04754638672,0.041569,0.002066,-0.4602916732051,-3.8946334943206,7.7234684921371,8.6496692188319,0.057900336742372,0.11187355583231,-1.4970873565671,0.36254779994218,9.8640271074549,-1.4832225438612,-0.042988113299897,9.8729006166935,0.0079926844574997,0.011939504171111,0.00053903511923546,0.0079937759579759,0.011907434702072,0.0010170220612616,0.17422973339818,0.014142135623731,4.0,7.0,5.0,5.0,6.0,True,160
161,177.6,208.68,284.06,336.81,1,0,0,1,48.942673141899,8.4103695376198,137.05084228516,0.041616,0.003212,-0.4600746732051,-3.8165987771566,7.5651162964895,8.4731252570738,0.059642893038576,0.10888800536206,-1.9656019188262,0.47871070012568,9.6821992957641,-1.9401618577221,0.076759851783841,9.6990741791772,0.0019666984527852,0.010509119165793,0.0020731193788747,0.001973982136313,0.010413913157796,0.0025034225999261,0.17422973339818,0.014142135623731,4.0,7.0,5.0,5.0,6.0,True,161
162,177.77,209.56,276.65,331.02,1,0,0,1,48.942669406449,8.4103806127516,137.04832458496,0.041688,0.003041,-0.4603466732051,-3.7157306163175,7.3675625215465,8.2513293024456,0.056534033230845,0.095303420498785,-2.0400813050701,0.42734973495045,9.7101667010495,-2.0099932103697,0.022870338492959,9.7258609912767,0.0010423546044271,-0.00098516024362968,-0.0003495201955132,0.0010410077698607,-0.00096974722516664,-0.00039365187732379,0.17422973339818,0.014142135623731,4.0,7.0,5.0,5.0,6.0,True,162
163,177.94,210.47,268.9,324.98,1,0,0,1,48.942666122056,8.4103904041331,137.05032348633,0.040995,0.002304,-0.4603596732051,-3.6252945980101,7.1834499852535,8.04621026361,0.05669786721863,0.090701378908322,-2.0756326258843,0.44092577639874,9.8607168294953,-2.0502017151072,0.033395784558103,9.8758819287826,-0.0054372260410154,-0.0048655597104752,0.00074952852739648,-0.00543596153763,-0.0048921676503516,0.00056150755270105,0.17422973339818,0.014142135623731,4.0,7.0,5.0,5.0,6.0,True,163
164,178.13,211.43,260.78,318.67,1,0,0,1,48.942662922914,8.4103999481564,137.05439758301,0.04095,0.002284,-0.4606326732051,-3.5338871878537,6.9954191082984,7.8371535204878,0.05723384602096,0.10108647331688,-2.1720452755068,0.33645852071812,9.8822170170522,-2.1486888531842,-0.06800347893268,9.8928378824517,0.00073701044928202,-0.0014679736601969,-0.0019320743527799,0.00073246333753832,-0.0013878118057296,-0.0019926381478615,0.16717057157287,0.014142135623731,4.0,7.0,5.0,5.0,6.0,True,164
165,178.32,212.44,252.27,312.09,1,0,0,1,48.942659503512,8.4104101162499,137.05941772461,0.040956,0.001628,-0.4609846732051,-3.429195563848,6.7758852767675,7.5939827004355,0.058618092899449,0.10531910843064,-2.2583579607014,0.42999374495032,9.8255107004734,-2.2390636008528,0.027032915102447,9.8392997780436,-0.0004647335952955,-0.0059916868502827,-0.0024084221768012,-0.00046972187216264,-0.0058880697014932,-0.0026511332936761,0.16717057157287,0.016970562748477,4.0,7.0,5.0,5.0,6.0,True,165
166,178.53,213.5,243.33,305.21,1,0,0,1,48.942656480437,8.4104190861998,137.0625,0.040963,0.001296,-0.4614706732051,-3.3322334623354,6.5760229708438,7.3718761453179,0.05747882427116,0.10733572220372,-2.2792514860313,0.38627001753399,9.8008849924794,-2.2649711508528,-0.015994250923409,9.8118128751057,-0.0010010802982366,-0.0029562921367625,-0.0038351043018725,-0.0010066200985146,-0.0027965699521672,-0.0039509947649557,0.16717057157287,0.016970562748477,4.0,7.0,5.0,5.0,6.0,True,166
167,188.105,274.005,748.865,932.385,1,0,0,1,48.942653251394,8.4104286496939,137.0677947998,0.040414,0.002176,-0.4616586732051,-3.2229199457242,6.3547066061184,7.1250564018969,0.055510788591058,0.10068841030446,-2.2985192572747,0.41318764217937,9.7614320726937,-2.2811359700596,0.015372387745656,9.7742570489514,-0.0055905502076582,0.0068738829886852,-0.001391210526312,-0.0055918864504789,0.0069253888853818,-0.0011001404281312,0.16717057157287,0.016970562748477,4.0,7.0,5.0,5.0,6.0,True,167
168,201.46,287.36,762.22,945.74,1,0,0,1,48.942650420548,8.4104370442952,137.0744934082,0.039478,0.003048,-0.4618186732051,-3.1206405612978,6.144280459958,6.8911100444713,0.056436499713273,0.10336389240542,-2.4131015989826,0.3670695961953,9.8626933935117,-2.3875046824036,-0.026991085553244,9.8757436787148,-0.008131825894471,0.0079745344195512,-0.0011739238299221,-0.0081336577806379,0.0080153798233866,-0.00083329726206447,0.16717057157287,0.016970562748477,4.0,7.0,5.0,5.0,6.0,True,168
169,179.21,217.01,213.62,282.55,1,0,0,1,48.942647678156,8.4104451379956,137.08207702637,0.039418,0.003575,-0.4620846732051,-3.0218055036214,5.9272725194993,6.6528086529278,0.063354604497061,0.11261448153912,-2.4251879708663,0.29428099890571,9.8411309483938,-2.3932656092304,-0.094742058131157,9.8529080897077,-0.0017372246441644,0.0057105281081662,-0.0022604141832467,-0.0017440139082266,0.0057953351016687,-0.0020281897906733,0.16717057157287,0.016970562748477,4.0,7.0,5.0,5.0,6.0,False,169
170,179.104960623,291.424960623,793.930891661,1013.19089166,1,0,0,1,48.942645038364,8.4104529278042,137.09083557129,0.039958,0.004368,-0.4622236732051,-2.9224017404282,5.7133844953687,6.4170474461602,0.068577555055,0.10902608409546,-2.3811411578656,0.39221607618078,9.7030137974861,-2.3433411540075,0.0063017112205711,9.7201500417071,0.003638679199537,0.008263728918262,-0.0018168926879272,0.0036328392086023,0.0083293839261967,-0.0015014919428264,0.16717057157287,0.016970562748477,4.0,7.0,5.0,5.0,6.0,True,170
171,184.097065737,296.417065737,815.184548538,1034.44454854,1,0,0,1,48.942642228218,8.4104611842337,137.09103393555,0.039705,0.004949,-0.4626136732051,-2.8056751189866,5.4831059486723,6.1589009079933,0.064835535349215,0.084766207303168,-2.3935983594512,0.40264200931258,9.5828660554138,-2.3477284065044,0.020850511049762,9.6026432750464,-0.0019990632602448,0.0027778532598044,-0.0029880831610766,-0.0020129924482489,0.0028946133913317,-0.0028640180975151,0.16717057157287,0.016970562748477,4.0,7.0,5.0,5.0,6.0,False,171
172,179.76,220.08,187.42,262.83,1,0,0,1,48.942639782075,8.4104683795985,137.09231567383,0.040006,0.00393,-0.4629306732051,-2.7053716546129,5.2767715132809,5.92951039831,0.06531732787486,0.072275140145673,-2.2723714689243,0.34555873108926,9.7417783864582,-2.2290458469736,-0.042785795127943,9.75785123193,0.0028414400150913,-0.0092596534085942,-0.0027742825343258,0.0028273993864448,-0.0091418697926488,-0.0031525114902417,0.16717057157287,0.016970562748477,4.0,8.0,5.0,5.0,6.0,False,172
173,179.92,221.02,179.38,256.82,1,0,0,1,48.94263718193,8.4104760023575,137.09381103516,0.039867,0.002937,-0.4631736732051,-2.6045310855158,5.0668773018228,5.6966957840976,0.067006801151411,0.073602318440505,-2.1079877818143,0.40509837554367,9.898056279543,-2.0744299841876,0.0090707169921265,9.913469886378,-0.0021468590847805,-0.0081311430568794,-0.001647043291219,-0.0021538999161897,-0.0080588027987384,-0.0019651871706219,0.16717057157287,0.016970562748477,4.0,8.0,5.0,5.0,6.0,False,173
174,180.08,222.0,171.02,250.6,1,0,0,1,48.942634878146,8.410482623738,137.10273742676,0.039604,0.002729,-0.4632906732051,-2.5164714553453,4.8892117150864,5.4984155653285,0.066699797821365,0.074671347335093,-1.8987059023296,0.3618409289565,9.708978791184,-1.8695071927247,-0.024684639077964,9.7213907567391,-0.0037582658147916,-0.0048783654079292,-0.0020857756688363,-0.003765230002937,-0.0047914385948504,-0.0022677160452175,0.16077624202599,0.01838477631085,4.0,8.0,5.0,5.0,6.0,False,174
